Sample 1
4/21/2023 1:54 PM
Wavelength (nm)	10mm Absorbance
//WLCalib: Shift 	0.02000	
//WLCalib: 261S 	-0.34000	
//WLCalib: 362S 	-0.41000	
//WLCalib: 484S 	-0.30000	
//WLCalib: 529S 	-0.49000	
//WLCalib: 823S 	-0.33000	
//QSpecEnd: 
190.0	6.407
190.5	6.363
191.0	6.472
191.5	6.388
192.0	6.390
192.5	6.252
193.0	6.059
193.5	5.766
194.0	5.643
194.5	5.532
195.0	5.552
195.5	5.485
196.0	5.631
196.5	5.726
197.0	5.707
197.5	5.512
198.0	5.237
198.5	4.777
199.0	4.584
199.5	4.387
200.0	4.226
200.5	4.156
201.0	4.308
201.5	4.514
202.0	4.598
202.5	4.683
203.0	4.743
203.5	4.891
204.0	4.815
204.5	4.624
205.0	4.489
205.5	4.389
206.0	4.366
206.5	4.407
207.0	4.500
207.5	4.505
208.0	4.690
208.5	4.926
209.0	4.979
209.5	4.913
210.0	5.038
210.5	5.173
211.0	5.361
211.5	5.545
212.0	5.813
212.5	6.107
213.0	6.383
213.5	6.718
214.0	7.079
214.5	7.431
215.0	7.918
215.5	8.401
216.0	8.784
216.5	9.228
217.0	9.655
217.5	10.081
218.0	10.452
218.5	10.936
219.0	11.467
219.5	12.069
220.0	12.695
220.5	13.310
221.0	13.817
221.5	14.326
222.0	14.766
222.5	15.247
223.0	15.628
223.5	16.006
224.0	16.434
224.5	16.893
225.0	17.420
225.5	18.031
226.0	18.861
226.5	19.987
227.0	21.388
227.5	22.918
228.0	24.396
228.5	25.687
229.0	26.658
229.5	27.185
230.0	27.233
230.5	26.865
231.0	26.294
231.5	25.726
232.0	25.331
232.5	24.971
233.0	24.812
233.5	24.833
234.0	25.042
234.5	25.059
235.0	25.191
235.5	25.302
236.0	25.384
236.5	25.301
237.0	24.891
237.5	24.361
238.0	23.902
238.5	23.356
239.0	22.850
239.5	22.174
240.0	21.773
240.5	21.446
241.0	21.076
241.5	20.630
242.0	20.066
242.5	19.606
243.0	19.180
243.5	18.668
244.0	18.201
244.5	17.654
245.0	17.072
245.5	16.465
246.0	15.855
246.5	15.307
247.0	14.831
247.5	14.431
248.0	14.055
248.5	13.692
249.0	13.368
249.5	12.993
250.0	12.620
250.5	12.245
251.0	11.888
251.5	11.578
252.0	11.308
252.5	11.093
253.0	10.912
253.5	10.756
254.0	10.614
254.5	10.477
255.0	10.342
255.5	10.217
256.0	10.120
256.5	10.042
257.0	9.974
257.5	9.922
258.0	9.876
258.5	9.836
259.0	9.810
259.5	9.783
260.0	9.755
260.5	9.740
261.0	9.736
261.5	9.741
262.0	9.762
262.5	9.776
263.0	9.808
263.5	9.833
264.0	9.840
264.5	9.853
265.0	9.858
265.5	9.846
266.0	9.833
266.5	9.841
267.0	9.851
267.5	9.868
268.0	9.890
268.5	9.891
269.0	9.877
269.5	9.852
270.0	9.797
270.5	9.732
271.0	9.676
271.5	9.627
272.0	9.568
272.5	9.509
273.0	9.449
273.5	9.376
274.0	9.311
274.5	9.237
275.0	9.164
275.5	9.108
276.0	9.066
276.5	9.030
277.0	8.985
277.5	8.932
278.0	8.900
278.5	8.857
279.0	8.829
279.5	8.794
280.0	8.760
280.5	8.732
281.0	8.701
281.5	8.670
282.0	8.628
282.5	8.571
283.0	8.520
283.5	8.452
284.0	8.378
284.5	8.290
285.0	8.190
285.5	8.100
286.0	8.005
286.5	7.907
287.0	7.811
287.5	7.699
288.0	7.578
288.5	7.451
289.0	7.327
289.5	7.195
290.0	7.074
290.5	6.973
291.0	6.868
291.5	6.776
292.0	6.698
292.5	6.622
293.0	6.551
293.5	6.486
294.0	6.426
294.5	6.368
295.0	6.330
295.5	6.299
296.0	6.267
296.5	6.248
297.0	6.237
297.5	6.232
298.0	6.226
298.5	6.218
299.0	6.207
299.5	6.195
300.0	6.192
300.5	6.187
301.0	6.175
301.5	6.168
302.0	6.169
302.5	6.172
303.0	6.176
303.5	6.173
304.0	6.170
304.5	6.170
305.0	6.168
305.5	6.165
306.0	6.164
306.5	6.167
307.0	6.165
307.5	6.166
308.0	6.174
308.5	6.173
309.0	6.176
309.5	6.173
310.0	6.168
310.5	6.169
311.0	6.175
311.5	6.184
312.0	6.189
312.5	6.197
313.0	6.212
313.5	6.223
314.0	6.233
314.5	6.228
315.0	6.227
315.5	6.231
316.0	6.233
316.5	6.248
317.0	6.253
317.5	6.258
318.0	6.265
318.5	6.278
319.0	6.293
319.5	6.299
320.0	6.314
320.5	6.325
321.0	6.335
321.5	6.346
322.0	6.345
322.5	6.349
323.0	6.352
323.5	6.358
324.0	6.361
324.5	6.365
325.0	6.374
325.5	6.367
326.0	6.366
326.5	6.361
327.0	6.359
327.5	6.356
328.0	6.354
328.5	6.351
329.0	6.349
329.5	6.350
330.0	6.355
330.5	6.349
331.0	6.341
331.5	6.339
332.0	6.336
332.5	6.329
333.0	6.320
333.5	6.311
334.0	6.302
334.5	6.290
335.0	6.281
335.5	6.269
336.0	6.252
336.5	6.241
337.0	6.224
337.5	6.207
338.0	6.190
338.5	6.177
339.0	6.160
339.5	6.142
340.0	6.125
340.5	6.109
341.0	6.085
341.5	6.060
342.0	6.038
342.5	6.017
343.0	5.992
343.5	5.972
344.0	5.940
344.5	5.911
345.0	5.886
345.5	5.853
346.0	5.828
346.5	5.803
347.0	5.774
347.5	5.746
348.0	5.710
348.5	5.680
349.0	5.648
349.5	5.615
350.0	5.583
350.5	5.551
351.0	5.527
351.5	5.494
352.0	5.455
352.5	5.419
353.0	5.380
353.5	5.346
354.0	5.309
354.5	5.265
355.0	5.225
355.5	5.191
356.0	5.159
356.5	5.120
357.0	5.080
357.5	5.041
358.0	5.006
358.5	4.968
359.0	4.924
359.5	4.884
360.0	4.839
360.5	4.794
361.0	4.747
361.5	4.696
362.0	4.646
362.5	4.592
363.0	4.542
363.5	4.495
364.0	4.445
364.5	4.399
365.0	4.353
365.5	4.304
366.0	4.255
366.5	4.204
367.0	4.153
367.5	4.099
368.0	4.049
368.5	3.996
369.0	3.936
369.5	3.882
370.0	3.828
370.5	3.772
371.0	3.714
371.5	3.654
372.0	3.597
372.5	3.539
373.0	3.483
373.5	3.426
374.0	3.368
374.5	3.311
375.0	3.249
375.5	3.193
376.0	3.136
376.5	3.079
377.0	3.022
377.5	2.965
378.0	2.912
378.5	2.860
379.0	2.804
379.5	2.750
380.0	2.692
380.5	2.636
381.0	2.582
381.5	2.524
382.0	2.463
382.5	2.404
383.0	2.344
383.5	2.288
384.0	2.238
384.5	2.195
385.0	2.148
385.5	2.102
386.0	2.056
386.5	2.005
387.0	1.951
387.5	1.897
388.0	1.843
388.5	1.797
389.0	1.753
389.5	1.713
390.0	1.672
390.5	1.628
391.0	1.587
391.5	1.540
392.0	1.495
392.5	1.448
393.0	1.403
393.5	1.364
394.0	1.326
394.5	1.291
395.0	1.256
395.5	1.224
396.0	1.194
396.5	1.159
397.0	1.127
397.5	1.095
398.0	1.064
398.5	1.032
399.0	1.001
399.5	0.971
400.0	0.944
400.5	0.921
401.0	0.893
401.5	0.867
402.0	0.841
402.5	0.815
403.0	0.789
403.5	0.760
404.0	0.738
404.5	0.720
405.0	0.704
405.5	0.687
406.0	0.669
406.5	0.653
407.0	0.634
407.5	0.615
408.0	0.600
408.5	0.583
409.0	0.570
409.5	0.558
410.0	0.547
410.5	0.536
411.0	0.524
411.5	0.513
412.0	0.503
412.5	0.492
413.0	0.481
413.5	0.471
414.0	0.459
414.5	0.450
415.0	0.441
415.5	0.433
416.0	0.426
416.5	0.421
417.0	0.416
417.5	0.407
418.0	0.396
418.5	0.389
419.0	0.380
419.5	0.374
420.0	0.369
420.5	0.364
421.0	0.359
421.5	0.355
422.0	0.351
422.5	0.344
423.0	0.336
423.5	0.333
424.0	0.330
424.5	0.330
425.0	0.328
425.5	0.323
426.0	0.318
426.5	0.313
427.0	0.309
427.5	0.305
428.0	0.299
428.5	0.293
429.0	0.291
429.5	0.292
430.0	0.291
430.5	0.289
431.0	0.290
431.5	0.287
432.0	0.286
432.5	0.287
433.0	0.283
433.5	0.280
434.0	0.283
434.5	0.285
435.0	0.283
435.5	0.280
436.0	0.279
436.5	0.273
437.0	0.270
437.5	0.268
438.0	0.261
438.5	0.259
439.0	0.261
439.5	0.262
440.0	0.260
440.5	0.260
441.0	0.261
441.5	0.259
442.0	0.261
442.5	0.262
443.0	0.260
443.5	0.261
444.0	0.264
444.5	0.265
445.0	0.265
445.5	0.265
446.0	0.266
446.5	0.266
447.0	0.267
447.5	0.270
448.0	0.270
448.5	0.269
449.0	0.271
449.5	0.269
450.0	0.264
450.5	0.257
451.0	0.250
451.5	0.245
452.0	0.240
452.5	0.239
453.0	0.237
453.5	0.236
454.0	0.239
454.5	0.241
455.0	0.242
455.5	0.243
456.0	0.244
456.5	0.245
457.0	0.245
457.5	0.248
458.0	0.247
458.5	0.247
459.0	0.251
459.5	0.250
460.0	0.250
460.5	0.250
461.0	0.251
461.5	0.252
462.0	0.250
462.5	0.247
463.0	0.243
463.5	0.241
464.0	0.239
464.5	0.236
465.0	0.235
465.5	0.234
466.0	0.234
466.5	0.237
467.0	0.237
467.5	0.237
468.0	0.236
468.5	0.234
469.0	0.232
469.5	0.230
470.0	0.230
470.5	0.228
471.0	0.226
471.5	0.228
472.0	0.230
472.5	0.232
473.0	0.230
473.5	0.229
474.0	0.227
474.5	0.224
475.0	0.223
475.5	0.222
476.0	0.220
476.5	0.219
477.0	0.220
477.5	0.221
478.0	0.219
478.5	0.220
479.0	0.218
479.5	0.215
480.0	0.210
480.5	0.205
481.0	0.203
481.5	0.203
482.0	0.207
482.5	0.210
483.0	0.214
483.5	0.217
484.0	0.217
484.5	0.214
485.0	0.209
485.5	0.205
486.0	0.201
486.5	0.197
487.0	0.199
487.5	0.202
488.0	0.203
488.5	0.204
489.0	0.204
489.5	0.203
490.0	0.199
490.5	0.195
491.0	0.189
491.5	0.188
492.0	0.193
492.5	0.196
493.0	0.197
493.5	0.196
494.0	0.194
494.5	0.192
495.0	0.186
495.5	0.185
496.0	0.181
496.5	0.180
497.0	0.180
497.5	0.175
498.0	0.173
498.5	0.175
499.0	0.176
499.5	0.177
500.0	0.176
500.5	0.179
501.0	0.179
501.5	0.182
502.0	0.182
502.5	0.181
503.0	0.179
503.5	0.176
504.0	0.173
504.5	0.167
505.0	0.162
505.5	0.157
506.0	0.157
506.5	0.162
507.0	0.166
507.5	0.165
508.0	0.165
508.5	0.161
509.0	0.159
509.5	0.159
510.0	0.157
510.5	0.157
511.0	0.161
511.5	0.160
512.0	0.161
512.5	0.159
513.0	0.159
513.5	0.157
514.0	0.156
514.5	0.154
515.0	0.152
515.5	0.148
516.0	0.145
516.5	0.138
517.0	0.139
517.5	0.141
518.0	0.141
518.5	0.149
519.0	0.153
519.5	0.156
520.0	0.151
520.5	0.148
521.0	0.144
521.5	0.141
522.0	0.137
522.5	0.131
523.0	0.126
523.5	0.124
524.0	0.123
524.5	0.124
525.0	0.124
525.5	0.127
526.0	0.128
526.5	0.127
527.0	0.126
527.5	0.124
528.0	0.123
528.5	0.124
529.0	0.126
529.5	0.131
530.0	0.138
530.5	0.139
531.0	0.136
531.5	0.132
532.0	0.127
532.5	0.123
533.0	0.120
533.5	0.117
534.0	0.113
534.5	0.111
535.0	0.112
535.5	0.109
536.0	0.108
536.5	0.108
537.0	0.105
537.5	0.103
538.0	0.103
538.5	0.103
539.0	0.101
539.5	0.101
540.0	0.100
540.5	0.103
541.0	0.106
541.5	0.107
542.0	0.109
542.5	0.109
543.0	0.106
543.5	0.101
544.0	0.094
544.5	0.087
545.0	0.083
545.5	0.083
546.0	0.082
546.5	0.081
547.0	0.083
547.5	0.085
548.0	0.088
548.5	0.088
549.0	0.086
549.5	0.079
550.0	0.075
550.5	0.071
551.0	0.068
551.5	0.066
552.0	0.068
552.5	0.070
553.0	0.073
553.5	0.074
554.0	0.075
554.5	0.072
555.0	0.076
555.5	0.077
556.0	0.077
556.5	0.082
557.0	0.082
557.5	0.076
558.0	0.068
558.5	0.066
559.0	0.067
559.5	0.070
560.0	0.080
560.5	0.086
561.0	0.092
561.5	0.097
562.0	0.095
562.5	0.089
563.0	0.082
563.5	0.079
564.0	0.072
564.5	0.067
565.0	0.063
565.5	0.063
566.0	0.062
566.5	0.063
567.0	0.061
567.5	0.062
568.0	0.065
568.5	0.064
569.0	0.064
569.5	0.066
570.0	0.067
570.5	0.069
571.0	0.068
571.5	0.067
572.0	0.067
572.5	0.066
573.0	0.065
573.5	0.060
574.0	0.058
574.5	0.057
575.0	0.060
575.5	0.061
576.0	0.056
576.5	0.054
577.0	0.057
577.5	0.058
578.0	0.056
578.5	0.053
579.0	0.048
579.5	0.047
580.0	0.048
580.5	0.047
581.0	0.040
581.5	0.043
582.0	0.047
582.5	0.048
583.0	0.048
583.5	0.047
584.0	0.046
584.5	0.048
585.0	0.050
585.5	0.051
586.0	0.052
586.5	0.058
587.0	0.055
587.5	0.053
588.0	0.051
588.5	0.042
589.0	0.038
589.5	0.033
590.0	0.031
590.5	0.031
591.0	0.032
591.5	0.035
592.0	0.035
592.5	0.036
593.0	0.033
593.5	0.034
594.0	0.031
594.5	0.029
595.0	0.027
595.5	0.026
596.0	0.029
596.5	0.030
597.0	0.031
597.5	0.033
598.0	0.032
598.5	0.034
599.0	0.033
599.5	0.034
600.0	0.035
600.5	0.032
601.0	0.033
601.5	0.031
602.0	0.027
602.5	0.028
603.0	0.025
603.5	0.025
604.0	0.026
604.5	0.023
605.0	0.026
605.5	0.028
606.0	0.030
606.5	0.033
607.0	0.035
607.5	0.040
608.0	0.038
608.5	0.039
609.0	0.036
609.5	0.032
610.0	0.033
610.5	0.032
611.0	0.032
611.5	0.034
612.0	0.033
612.5	0.030
613.0	0.026
613.5	0.022
614.0	0.021
614.5	0.022
615.0	0.023
615.5	0.028
616.0	0.031
616.5	0.036
617.0	0.036
617.5	0.035
618.0	0.034
618.5	0.033
619.0	0.033
619.5	0.032
620.0	0.026
620.5	0.029
621.0	0.028
621.5	0.030
622.0	0.033
622.5	0.037
623.0	0.038
623.5	0.040
624.0	0.038
624.5	0.034
625.0	0.027
625.5	0.021
626.0	0.019
626.5	0.018
627.0	0.024
627.5	0.025
628.0	0.024
628.5	0.023
629.0	0.018
629.5	0.013
630.0	0.011
630.5	0.008
631.0	0.013
631.5	0.016
632.0	0.018
632.5	0.016
633.0	0.016
633.5	0.008
634.0	0.001
634.5	-0.006
635.0	-0.008
635.5	-0.006
636.0	-0.001
636.5	0.002
637.0	0.010
637.5	0.019
638.0	0.029
638.5	0.032
639.0	0.036
639.5	0.035
640.0	0.034
640.5	0.033
641.0	0.023
641.5	0.017
642.0	0.013
642.5	0.011
643.0	0.007
643.5	0.006
644.0	0.007
644.5	0.012
645.0	0.020
645.5	0.023
646.0	0.019
646.5	0.020
647.0	0.025
647.5	0.025
648.0	0.020
648.5	0.017
649.0	0.012
649.5	0.018
650.0	0.020
650.5	0.019
651.0	0.019
651.5	0.023
652.0	0.026
652.5	0.024
653.0	0.018
653.5	0.016
654.0	0.012
654.5	0.010
655.0	0.003
655.5	-0.002
656.0	0.000
656.5	0.000
657.0	0.003
657.5	0.007
658.0	0.011
658.5	0.016
659.0	0.023
659.5	0.021
660.0	0.012
660.5	0.000
661.0	-0.009
661.5	-0.010
662.0	0.000
662.5	0.009
663.0	0.019
663.5	0.030
664.0	0.040
664.5	0.043
665.0	0.044
665.5	0.039
666.0	0.032
666.5	0.023
667.0	0.014
667.5	0.003
668.0	-0.005
668.5	-0.003
669.0	0.000
669.5	0.005
670.0	0.018
670.5	0.026
671.0	0.032
671.5	0.034
672.0	0.034
672.5	0.029
673.0	0.018
673.5	0.008
674.0	0.000
674.5	-0.004
675.0	-0.008
675.5	-0.008
676.0	-0.009
676.5	-0.002
677.0	0.009
677.5	0.007
678.0	0.002
678.5	-0.003
679.0	-0.002
679.5	-0.007
680.0	-0.009
680.5	-0.011
681.0	-0.012
681.5	-0.007
682.0	0.000
682.5	0.001
683.0	0.007
683.5	0.006
684.0	0.001
684.5	-0.005
685.0	0.002
685.5	0.007
686.0	0.012
686.5	0.016
687.0	0.019
687.5	0.019
688.0	0.020
688.5	0.013
689.0	0.004
689.5	0.000
690.0	0.007
690.5	0.007
691.0	0.008
691.5	0.011
692.0	0.015
692.5	0.014
693.0	0.020
693.5	0.016
694.0	0.013
694.5	0.009
695.0	0.006
695.5	-0.004
696.0	-0.008
696.5	-0.007
697.0	-0.006
697.5	0.000
698.0	0.011
698.5	0.013
699.0	0.014
699.5	0.011
700.0	0.007
700.5	0.000
701.0	-0.005
701.5	-0.005
702.0	0.001
702.5	0.010
703.0	0.011
703.5	0.006
704.0	-0.003
704.5	-0.004
705.0	-0.009
705.5	-0.015
706.0	-0.018
706.5	-0.015
707.0	-0.001
707.5	0.009
708.0	0.013
708.5	0.019
709.0	0.026
709.5	0.026
710.0	0.020
710.5	0.013
711.0	0.010
711.5	0.003
712.0	0.004
712.5	-0.001
713.0	-0.010
713.5	-0.012
714.0	-0.008
714.5	-0.016
715.0	-0.011
715.5	-0.010
716.0	-0.002
716.5	0.003
717.0	0.013
717.5	0.014
718.0	0.011
718.5	0.006
719.0	0.008
719.5	-0.001
720.0	-0.005
720.5	-0.010
721.0	-0.006
721.5	-0.005
722.0	0.002
722.5	0.006
723.0	0.004
723.5	0.004
724.0	0.004
724.5	0.000
725.0	0.006
725.5	0.010
726.0	0.009
726.5	0.008
727.0	0.007
727.5	0.008
728.0	0.006
728.5	0.001
729.0	-0.004
729.5	-0.006
730.0	0.005
730.5	0.005
731.0	0.008
731.5	0.019
732.0	0.033
732.5	0.042
733.0	0.039
733.5	0.027
734.0	0.022
734.5	0.017
735.0	0.021
735.5	0.015
736.0	0.015
736.5	0.019
737.0	0.023
737.5	0.011
738.0	-0.008
738.5	-0.016
739.0	-0.012
739.5	-0.003
740.0	0.007
740.5	0.012
741.0	0.013
741.5	0.015
742.0	0.012
742.5	0.002
743.0	-0.008
743.5	-0.011
744.0	0.000
744.5	0.012
745.0	0.017
745.5	0.016
746.0	0.012
746.5	0.020
747.0	0.019
747.5	0.016
748.0	0.014
748.5	0.004
749.0	0.002
749.5	-0.001
750.0	-0.009
750.5	-0.010
751.0	-0.002
751.5	0.014
752.0	0.023
752.5	0.034
753.0	0.045
753.5	0.046
754.0	0.037
754.5	0.030
755.0	0.023
755.5	0.013
756.0	0.002
756.5	-0.004
757.0	0.000
757.5	0.007
758.0	0.018
758.5	0.022
759.0	0.019
759.5	0.016
760.0	0.014
760.5	0.006
761.0	0.001
761.5	0.009
762.0	0.016
762.5	0.019
763.0	0.020
763.5	0.022
764.0	0.019
764.5	0.014
765.0	0.015
765.5	0.021
766.0	0.023
766.5	0.025
767.0	0.020
767.5	0.011
768.0	0.006
768.5	0.010
769.0	0.009
769.5	0.005
770.0	0.007
770.5	0.006
771.0	0.003
771.5	0.000
772.0	-0.003
772.5	-0.006
773.0	-0.007
773.5	-0.005
774.0	-0.002
774.5	-0.002
775.0	-0.006
775.5	-0.012
776.0	-0.010
776.5	-0.011
777.0	-0.015
777.5	-0.013
778.0	-0.007
778.5	-0.002
779.0	0.010
779.5	0.015
780.0	0.010
780.5	0.007
781.0	0.010
781.5	0.005
782.0	0.002
782.5	0.006
783.0	0.013
783.5	0.014
784.0	0.028
784.5	0.032
785.0	0.027
785.5	0.023
786.0	0.018
786.5	0.010
787.0	0.006
787.5	-0.002
788.0	-0.010
788.5	-0.013
789.0	0.002
789.5	0.006
790.0	0.006
790.5	0.000
791.0	-0.002
791.5	-0.001
792.0	0.004
792.5	0.004
793.0	0.012
793.5	0.024
794.0	0.035
794.5	0.039
795.0	0.040
795.5	0.030
796.0	0.031
796.5	0.029
797.0	0.029
797.5	0.034
798.0	0.030
798.5	0.023
799.0	0.019
799.5	0.022
800.0	0.024
800.5	0.019
801.0	0.014
801.5	-0.001
802.0	-0.009
802.5	-0.011
803.0	-0.027
803.5	-0.028
804.0	-0.022
804.5	-0.012
805.0	-0.007
805.5	-0.010
806.0	-0.007
806.5	-0.013
807.0	-0.009
807.5	0.003
808.0	0.016
808.5	0.024
809.0	0.027
809.5	0.029
810.0	0.023
810.5	0.015
811.0	0.012
811.5	0.000
812.0	0.000
812.5	0.000
813.0	0.008
813.5	0.012
814.0	0.016
814.5	0.023
815.0	0.021
815.5	0.017
816.0	0.006
816.5	0.007
817.0	0.007
817.5	0.001
818.0	0.012
818.5	0.018
819.0	0.015
819.5	0.015
820.0	0.008
820.5	-0.003
821.0	-0.014
821.5	-0.015
822.0	-0.019
822.5	-0.014
823.0	-0.004
823.5	-0.003
824.0	0.002
824.5	0.005
825.0	0.012
825.5	0.020
826.0	0.022
826.5	0.025
827.0	0.038
827.5	0.049
828.0	0.058
828.5	0.055
829.0	0.047
829.5	0.027
830.0	0.007
830.5	-0.018
831.0	-0.037
831.5	-0.050
832.0	-0.050
832.5	-0.041
833.0	-0.023
833.5	-0.011
834.0	0.008
834.5	0.023
835.0	0.031
835.5	0.032
836.0	0.037
836.5	0.018
837.0	0.003
837.5	-0.006
838.0	-0.013
838.5	-0.022
839.0	-0.013
839.5	-0.012
840.0	-0.009
840.5	0.000
841.0	0.008
841.5	-0.002
842.0	0.000
842.5	0.001
843.0	0.007
843.5	0.009
844.0	0.004
844.5	-0.001
845.0	-0.007
845.5	-0.003
846.0	-0.005
846.5	-0.014
847.0	-0.011
847.5	-0.013
848.0	-0.006
848.5	-0.016
849.0	-0.025
849.5	-0.015
850.0	-0.021


Sample 2
4/21/2023 2:00 PM
Wavelength (nm)	10mm Absorbance
//WLCalib: Shift 	0.02000	
//WLCalib: 261S 	-0.34000	
//WLCalib: 362S 	-0.41000	
//WLCalib: 484S 	-0.30000	
//WLCalib: 529S 	-0.49000	
//WLCalib: 823S 	-0.33000	
//QSpecEnd: 
190.0	5.317
190.5	5.145
191.0	4.915
191.5	4.927
192.0	4.973
192.5	4.935
193.0	4.775
193.5	4.620
194.0	4.382
194.5	4.317
195.0	4.307
195.5	4.182
196.0	4.135
196.5	4.352
197.0	4.482
197.5	4.517
198.0	4.395
198.5	4.340
199.0	4.286
199.5	4.231
200.0	4.049
200.5	3.760
201.0	3.577
201.5	3.535
202.0	3.305
202.5	3.110
203.0	3.039
203.5	3.007
204.0	2.828
204.5	2.744
205.0	2.668
205.5	2.908
206.0	2.878
206.5	2.848
207.0	2.779
207.5	2.626
208.0	2.652
208.5	2.522
209.0	2.255
209.5	1.948
210.0	1.984
210.5	2.160
211.0	2.118
211.5	2.488
212.0	2.745
212.5	3.037
213.0	3.582
213.5	3.909
214.0	4.170
214.5	4.277
215.0	4.741
215.5	5.154
216.0	5.724
216.5	6.211
217.0	6.766
217.5	7.347
218.0	7.870
218.5	8.347
219.0	8.789
219.5	9.348
220.0	9.956
220.5	10.578
221.0	11.284
221.5	11.874
222.0	12.528
222.5	13.004
223.0	13.467
223.5	13.837
224.0	14.295
224.5	14.817
225.0	15.395
225.5	16.055
226.0	16.940
226.5	18.114
227.0	19.570
227.5	21.117
228.0	22.645
228.5	23.951
229.0	24.956
229.5	25.513
230.0	25.600
230.5	25.256
231.0	24.723
231.5	24.190
232.0	23.777
232.5	23.551
233.0	23.481
233.5	23.564
234.0	23.785
234.5	24.073
235.0	24.336
235.5	24.473
236.0	24.623
236.5	24.555
237.0	24.426
237.5	24.503
238.0	24.434
238.5	24.448
239.0	24.466
239.5	24.322
240.0	24.491
240.5	24.505
241.0	24.469
241.5	24.149
242.0	23.873
242.5	23.685
243.0	23.197
243.5	22.721
244.0	22.043
244.5	21.235
245.0	20.632
245.5	19.805
246.0	19.036
246.5	18.378
247.0	17.838
247.5	17.400
248.0	16.970
248.5	16.553
249.0	16.053
249.5	15.551
250.0	15.049
250.5	14.589
251.0	14.177
251.5	13.867
252.0	13.578
252.5	13.354
253.0	13.148
253.5	12.956
254.0	12.772
254.5	12.616
255.0	12.451
255.5	12.325
256.0	12.207
256.5	12.101
257.0	12.004
257.5	11.940
258.0	11.885
258.5	11.844
259.0	11.824
259.5	11.804
260.0	11.779
260.5	11.771
261.0	11.760
261.5	11.768
262.0	11.778
262.5	11.786
263.0	11.776
263.5	11.789
264.0	11.785
264.5	11.797
265.0	11.809
265.5	11.854
266.0	11.873
266.5	11.911
267.0	11.944
267.5	11.944
268.0	11.910
268.5	11.900
269.0	11.857
269.5	11.823
270.0	11.763
270.5	11.707
271.0	11.621
271.5	11.560
272.0	11.508
272.5	11.425
273.0	11.365
273.5	11.297
274.0	11.227
274.5	11.170
275.0	11.092
275.5	11.022
276.0	10.968
276.5	10.910
277.0	10.865
277.5	10.816
278.0	10.787
278.5	10.726
279.0	10.681
279.5	10.648
280.0	10.587
280.5	10.541
281.0	10.502
281.5	10.441
282.0	10.393
282.5	10.347
283.0	10.301
283.5	10.231
284.0	10.157
284.5	10.067
285.0	9.959
285.5	9.842
286.0	9.722
286.5	9.583
287.0	9.448
287.5	9.319
288.0	9.182
288.5	9.041
289.0	8.898
289.5	8.746
290.0	8.597
290.5	8.447
291.0	8.312
291.5	8.188
292.0	8.078
292.5	7.978
293.0	7.881
293.5	7.806
294.0	7.740
294.5	7.685
295.0	7.641
295.5	7.604
296.0	7.570
296.5	7.550
297.0	7.527
297.5	7.498
298.0	7.476
298.5	7.468
299.0	7.457
299.5	7.451
300.0	7.455
300.5	7.470
301.0	7.469
301.5	7.470
302.0	7.473
302.5	7.468
303.0	7.466
303.5	7.464
304.0	7.463
304.5	7.458
305.0	7.462
305.5	7.469
306.0	7.460
306.5	7.459
307.0	7.455
307.5	7.454
308.0	7.459
308.5	7.465
309.0	7.477
309.5	7.480
310.0	7.486
310.5	7.485
311.0	7.477
311.5	7.478
312.0	7.475
312.5	7.475
313.0	7.481
313.5	7.489
314.0	7.495
314.5	7.501
315.0	7.503
315.5	7.508
316.0	7.509
316.5	7.530
317.0	7.544
317.5	7.553
318.0	7.565
318.5	7.574
319.0	7.587
319.5	7.593
320.0	7.604
320.5	7.612
321.0	7.617
321.5	7.638
322.0	7.642
322.5	7.643
323.0	7.642
323.5	7.642
324.0	7.649
324.5	7.657
325.0	7.669
325.5	7.665
326.0	7.680
326.5	7.697
327.0	7.700
327.5	7.694
328.0	7.690
328.5	7.683
329.0	7.668
329.5	7.663
330.0	7.657
330.5	7.643
331.0	7.643
331.5	7.640
332.0	7.629
332.5	7.612
333.0	7.607
333.5	7.603
334.0	7.590
334.5	7.590
335.0	7.580
335.5	7.563
336.0	7.548
336.5	7.528
337.0	7.508
337.5	7.485
338.0	7.478
338.5	7.468
339.0	7.450
339.5	7.430
340.0	7.402
340.5	7.381
341.0	7.358
341.5	7.336
342.0	7.311
342.5	7.280
343.0	7.251
343.5	7.217
344.0	7.179
344.5	7.138
345.0	7.105
345.5	7.075
346.0	7.045
346.5	7.017
347.0	6.979
347.5	6.945
348.0	6.905
348.5	6.870
349.0	6.830
349.5	6.786
350.0	6.746
350.5	6.713
351.0	6.675
351.5	6.639
352.0	6.599
352.5	6.564
353.0	6.521
353.5	6.479
354.0	6.425
354.5	6.375
355.0	6.323
355.5	6.283
356.0	6.237
356.5	6.192
357.0	6.150
357.5	6.108
358.0	6.066
358.5	6.020
359.0	5.973
359.5	5.925
360.0	5.870
360.5	5.817
361.0	5.756
361.5	5.697
362.0	5.638
362.5	5.582
363.0	5.529
363.5	5.480
364.0	5.429
364.5	5.373
365.0	5.320
365.5	5.265
366.0	5.202
366.5	5.134
367.0	5.062
367.5	4.997
368.0	4.937
368.5	4.872
369.0	4.803
369.5	4.738
370.0	4.670
370.5	4.601
371.0	4.535
371.5	4.463
372.0	4.403
372.5	4.349
373.0	4.287
373.5	4.219
374.0	4.149
374.5	4.083
375.0	4.006
375.5	3.932
376.0	3.864
376.5	3.790
377.0	3.725
377.5	3.654
378.0	3.580
378.5	3.511
379.0	3.444
379.5	3.384
380.0	3.320
380.5	3.260
381.0	3.204
381.5	3.145
382.0	3.081
382.5	3.013
383.0	2.944
383.5	2.874
384.0	2.807
384.5	2.746
385.0	2.683
385.5	2.624
386.0	2.570
386.5	2.516
387.0	2.458
387.5	2.401
388.0	2.342
388.5	2.283
389.0	2.227
389.5	2.176
390.0	2.123
390.5	2.068
391.0	2.016
391.5	1.961
392.0	1.910
392.5	1.862
393.0	1.813
393.5	1.768
394.0	1.725
394.5	1.683
395.0	1.638
395.5	1.598
396.0	1.555
396.5	1.514
397.0	1.479
397.5	1.447
398.0	1.410
398.5	1.372
399.0	1.333
399.5	1.293
400.0	1.257
400.5	1.226
401.0	1.191
401.5	1.161
402.0	1.131
402.5	1.103
403.0	1.073
403.5	1.042
404.0	1.013
404.5	0.989
405.0	0.969
405.5	0.950
406.0	0.930
406.5	0.909
407.0	0.886
407.5	0.863
408.0	0.845
408.5	0.824
409.0	0.805
409.5	0.790
410.0	0.776
410.5	0.765
411.0	0.750
411.5	0.734
412.0	0.720
412.5	0.706
413.0	0.694
413.5	0.683
414.0	0.673
414.5	0.664
415.0	0.654
415.5	0.643
416.0	0.629
416.5	0.617
417.0	0.606
417.5	0.591
418.0	0.576
418.5	0.568
419.0	0.564
419.5	0.560
420.0	0.556
420.5	0.554
421.0	0.549
421.5	0.544
422.0	0.540
422.5	0.531
423.0	0.523
423.5	0.519
424.0	0.517
424.5	0.515
425.0	0.512
425.5	0.509
426.0	0.505
426.5	0.502
427.0	0.498
427.5	0.492
428.0	0.483
428.5	0.476
429.0	0.469
429.5	0.465
430.0	0.463
430.5	0.460
431.0	0.462
431.5	0.464
432.0	0.465
432.5	0.467
433.0	0.465
433.5	0.463
434.0	0.462
434.5	0.464
435.0	0.460
435.5	0.459
436.0	0.457
436.5	0.455
437.0	0.451
437.5	0.446
438.0	0.439
438.5	0.434
439.0	0.434
439.5	0.432
440.0	0.430
440.5	0.435
441.0	0.436
441.5	0.435
442.0	0.435
442.5	0.433
443.0	0.429
443.5	0.426
444.0	0.427
444.5	0.426
445.0	0.426
445.5	0.429
446.0	0.429
446.5	0.431
447.0	0.435
447.5	0.438
448.0	0.437
448.5	0.438
449.0	0.440
449.5	0.437
450.0	0.435
450.5	0.433
451.0	0.427
451.5	0.426
452.0	0.423
452.5	0.417
453.0	0.411
453.5	0.407
454.0	0.408
454.5	0.406
455.0	0.409
455.5	0.410
456.0	0.409
456.5	0.410
457.0	0.411
457.5	0.408
458.0	0.407
458.5	0.408
459.0	0.412
459.5	0.413
460.0	0.416
460.5	0.416
461.0	0.415
461.5	0.416
462.0	0.414
462.5	0.413
463.0	0.410
463.5	0.406
464.0	0.401
464.5	0.398
465.0	0.397
465.5	0.396
466.0	0.397
466.5	0.397
467.0	0.398
467.5	0.399
468.0	0.397
468.5	0.395
469.0	0.390
469.5	0.386
470.0	0.385
470.5	0.385
471.0	0.384
471.5	0.381
472.0	0.380
472.5	0.380
473.0	0.378
473.5	0.378
474.0	0.377
474.5	0.375
475.0	0.374
475.5	0.374
476.0	0.374
476.5	0.371
477.0	0.371
477.5	0.372
478.0	0.374
478.5	0.379
479.0	0.378
479.5	0.374
480.0	0.369
480.5	0.363
481.0	0.359
481.5	0.358
482.0	0.359
482.5	0.361
483.0	0.364
483.5	0.367
484.0	0.367
484.5	0.362
485.0	0.356
485.5	0.349
486.0	0.347
486.5	0.347
487.0	0.349
487.5	0.352
488.0	0.356
488.5	0.358
489.0	0.359
489.5	0.355
490.0	0.350
490.5	0.343
491.0	0.340
491.5	0.338
492.0	0.340
492.5	0.341
493.0	0.340
493.5	0.336
494.0	0.332
494.5	0.329
495.0	0.326
495.5	0.322
496.0	0.319
496.5	0.316
497.0	0.313
497.5	0.309
498.0	0.307
498.5	0.307
499.0	0.308
499.5	0.312
500.0	0.311
500.5	0.310
501.0	0.307
501.5	0.307
502.0	0.305
502.5	0.304
503.0	0.302
503.5	0.299
504.0	0.297
504.5	0.296
505.0	0.293
505.5	0.290
506.0	0.289
506.5	0.294
507.0	0.300
507.5	0.298
508.0	0.293
508.5	0.285
509.0	0.279
509.5	0.273
510.0	0.269
510.5	0.267
511.0	0.264
511.5	0.263
512.0	0.266
512.5	0.263
513.0	0.259
513.5	0.257
514.0	0.260
514.5	0.260
515.0	0.259
515.5	0.257
516.0	0.254
516.5	0.251
517.0	0.250
517.5	0.249
518.0	0.248
518.5	0.250
519.0	0.252
519.5	0.251
520.0	0.246
520.5	0.244
521.0	0.244
521.5	0.242
522.0	0.241
522.5	0.240
523.0	0.238
523.5	0.232
524.0	0.228
524.5	0.225
525.0	0.222
525.5	0.222
526.0	0.222
526.5	0.223
527.0	0.221
527.5	0.223
528.0	0.224
528.5	0.226
529.0	0.228
529.5	0.230
530.0	0.234
530.5	0.234
531.0	0.228
531.5	0.223
532.0	0.218
532.5	0.213
533.0	0.210
533.5	0.207
534.0	0.202
534.5	0.200
535.0	0.202
535.5	0.201
536.0	0.200
536.5	0.200
537.0	0.199
537.5	0.197
538.0	0.197
538.5	0.193
539.0	0.187
539.5	0.185
540.0	0.184
540.5	0.185
541.0	0.185
541.5	0.182
542.0	0.181
542.5	0.182
543.0	0.179
543.5	0.172
544.0	0.165
544.5	0.160
545.0	0.158
545.5	0.157
546.0	0.156
546.5	0.154
547.0	0.153
547.5	0.156
548.0	0.153
548.5	0.152
549.0	0.149
549.5	0.143
550.0	0.140
550.5	0.138
551.0	0.136
551.5	0.129
552.0	0.126
552.5	0.130
553.0	0.136
553.5	0.142
554.0	0.143
554.5	0.139
555.0	0.138
555.5	0.139
556.0	0.136
556.5	0.129
557.0	0.121
557.5	0.114
558.0	0.114
558.5	0.115
559.0	0.114
559.5	0.114
560.0	0.119
560.5	0.129
561.0	0.135
561.5	0.137
562.0	0.134
562.5	0.130
563.0	0.127
563.5	0.124
564.0	0.117
564.5	0.112
565.0	0.111
565.5	0.110
566.0	0.109
566.5	0.106
567.0	0.105
567.5	0.107
568.0	0.109
568.5	0.108
569.0	0.108
569.5	0.112
570.0	0.113
570.5	0.112
571.0	0.108
571.5	0.102
572.0	0.099
572.5	0.099
573.0	0.096
573.5	0.089
574.0	0.085
574.5	0.086
575.0	0.089
575.5	0.094
576.0	0.091
576.5	0.088
577.0	0.095
577.5	0.095
578.0	0.090
578.5	0.082
579.0	0.076
579.5	0.074
580.0	0.079
580.5	0.079
581.0	0.074
581.5	0.073
582.0	0.075
582.5	0.072
583.0	0.070
583.5	0.064
584.0	0.063
584.5	0.064
585.0	0.068
585.5	0.070
586.0	0.070
586.5	0.072
587.0	0.070
587.5	0.068
588.0	0.067
588.5	0.060
589.0	0.060
589.5	0.057
590.0	0.055
590.5	0.052
591.0	0.055
591.5	0.055
592.0	0.054
592.5	0.055
593.0	0.058
593.5	0.063
594.0	0.066
594.5	0.063
595.0	0.060
595.5	0.059
596.0	0.060
596.5	0.058
597.0	0.057
597.5	0.058
598.0	0.055
598.5	0.054
599.0	0.052
599.5	0.052
600.0	0.051
600.5	0.051
601.0	0.051
601.5	0.051
602.0	0.048
602.5	0.047
603.0	0.042
603.5	0.041
604.0	0.042
604.5	0.041
605.0	0.043
605.5	0.047
606.0	0.048
606.5	0.052
607.0	0.052
607.5	0.055
608.0	0.055
608.5	0.056
609.0	0.056
609.5	0.054
610.0	0.056
610.5	0.060
611.0	0.060
611.5	0.057
612.0	0.054
612.5	0.047
613.0	0.042
613.5	0.037
614.0	0.035
614.5	0.032
615.0	0.032
615.5	0.037
616.0	0.040
616.5	0.042
617.0	0.045
617.5	0.046
618.0	0.049
618.5	0.043
619.0	0.041
619.5	0.034
620.0	0.030
620.5	0.030
621.0	0.031
621.5	0.033
622.0	0.037
622.5	0.041
623.0	0.044
623.5	0.041
624.0	0.038
624.5	0.028
625.0	0.020
625.5	0.013
626.0	0.010
626.5	0.010
627.0	0.017
627.5	0.023
628.0	0.028
628.5	0.027
629.0	0.026
629.5	0.021
630.0	0.016
630.5	0.011
631.0	0.010
631.5	0.008
632.0	0.009
632.5	0.013
633.0	0.013
633.5	0.007
634.0	0.006
634.5	0.004
635.0	0.004
635.5	0.009
636.0	0.009
636.5	0.011
637.0	0.018
637.5	0.024
638.0	0.025
638.5	0.024
639.0	0.021
639.5	0.019
640.0	0.021
640.5	0.018
641.0	0.009
641.5	0.009
642.0	0.007
642.5	0.004
643.0	0.001
643.5	0.006
644.0	0.005
644.5	0.012
645.0	0.016
645.5	0.018
646.0	0.015
646.5	0.015
647.0	0.018
647.5	0.016
648.0	0.014
648.5	0.014
649.0	0.009
649.5	0.011
650.0	0.012
650.5	0.019
651.0	0.025
651.5	0.032
652.0	0.039
652.5	0.033
653.0	0.025
653.5	0.017
654.0	0.005
654.5	-0.003
655.0	-0.010
655.5	-0.009
656.0	-0.004
656.5	0.002
657.0	0.010
657.5	0.010
658.0	0.013
658.5	0.013
659.0	0.015
659.5	0.012
660.0	0.003
660.5	-0.001
661.0	-0.008
661.5	-0.004
662.0	0.002
662.5	0.005
663.0	0.008
663.5	0.012
664.0	0.020
664.5	0.025
665.0	0.028
665.5	0.030
666.0	0.026
666.5	0.027
667.0	0.021
667.5	0.011
668.0	0.003
668.5	0.003
669.0	0.005
669.5	0.009
670.0	0.009
670.5	0.009
671.0	0.009
671.5	0.015
672.0	0.017
672.5	0.012
673.0	0.006
673.5	-0.001
674.0	-0.007
674.5	-0.013
675.0	-0.022
675.5	-0.026
676.0	-0.025
676.5	-0.013
677.0	-0.001
677.5	0.001
678.0	-0.002
678.5	-0.004
679.0	-0.006
679.5	-0.007
680.0	-0.012
680.5	-0.015
681.0	-0.015
681.5	-0.009
682.0	-0.004
682.5	-0.005
683.0	-0.002
683.5	-0.001
684.0	-0.008
684.5	-0.010
685.0	-0.011
685.5	-0.014
686.0	-0.012
686.5	-0.013
687.0	-0.009
687.5	-0.007
688.0	0.004
688.5	0.012
689.0	0.007
689.5	0.008
690.0	0.011
690.5	0.005
691.0	-0.001
691.5	-0.003
692.0	0.000
692.5	0.000
693.0	0.008
693.5	0.011
694.0	0.008
694.5	0.009
695.0	0.006
695.5	-0.008
696.0	-0.019
696.5	-0.021
697.0	-0.020
697.5	-0.015
698.0	-0.006
698.5	0.000
699.0	0.011
699.5	0.022
700.0	0.025
700.5	0.024
701.0	0.020
701.5	0.018
702.0	0.022
702.5	0.025
703.0	0.019
703.5	0.013
704.0	0.009
704.5	0.007
705.0	-0.004
705.5	-0.011
706.0	-0.015
706.5	-0.011
707.0	0.000
707.5	0.005
708.0	0.007
708.5	0.008
709.0	0.013
709.5	0.014
710.0	0.002
710.5	-0.004
711.0	-0.010
711.5	-0.010
712.0	-0.008
712.5	-0.010
713.0	-0.018
713.5	-0.022
714.0	-0.020
714.5	-0.022
715.0	-0.019
715.5	-0.015
716.0	-0.007
716.5	0.007
717.0	0.018
717.5	0.022
718.0	0.016
718.5	0.006
719.0	-0.002
719.5	-0.012
720.0	-0.021
720.5	-0.021
721.0	-0.019
721.5	-0.019
722.0	-0.019
722.5	-0.019
723.0	-0.020
723.5	-0.026
724.0	-0.033
724.5	-0.038
725.0	-0.035
725.5	-0.027
726.0	-0.027
726.5	-0.027
727.0	-0.021
727.5	-0.013
728.0	-0.009
728.5	-0.010
729.0	-0.013
729.5	-0.010
730.0	0.001
730.5	0.000
731.0	-0.003
731.5	0.004
732.0	0.014
732.5	0.018
733.0	0.010
733.5	0.002
734.0	-0.005
734.5	-0.004
735.0	0.001
735.5	-0.005
736.0	-0.010
736.5	-0.010
737.0	-0.009
737.5	-0.014
738.0	-0.027
738.5	-0.023
739.0	-0.018
739.5	-0.006
740.0	0.004
740.5	0.011
741.0	0.015
741.5	0.017
742.0	0.016
742.5	0.005
743.0	-0.005
743.5	-0.008
744.0	-0.006
744.5	0.000
745.0	0.004
745.5	0.012
746.0	0.019
746.5	0.031
747.0	0.030
747.5	0.020
748.0	0.011
748.5	-0.002
749.0	-0.007
749.5	-0.010
750.0	-0.013
750.5	-0.012
751.0	-0.003
751.5	0.014
752.0	0.017
752.5	0.024
753.0	0.031
753.5	0.029
754.0	0.024
754.5	0.022
755.0	0.022
755.5	0.008
756.0	-0.002
756.5	-0.009
757.0	-0.011
757.5	-0.006
758.0	-0.002
758.5	-0.004
759.0	-0.004
759.5	0.000
760.0	0.004
760.5	-0.006
761.0	-0.007
761.5	0.001
762.0	0.007
762.5	0.010
763.0	0.008
763.5	0.009
764.0	0.002
764.5	-0.002
765.0	-0.007
765.5	-0.011
766.0	-0.010
766.5	-0.009
767.0	-0.010
767.5	-0.012
768.0	-0.015
768.5	-0.010
769.0	-0.012
769.5	-0.012
770.0	-0.008
770.5	-0.008
771.0	-0.002
771.5	0.000
772.0	-0.004
772.5	-0.017
773.0	-0.034
773.5	-0.042
774.0	-0.044
774.5	-0.042
775.0	-0.039
775.5	-0.034
776.0	-0.014
776.5	-0.009
777.0	-0.017
777.5	-0.020
778.0	-0.016
778.5	-0.007
779.0	0.009
779.5	0.014
780.0	0.011
780.5	0.007
781.0	0.004
781.5	-0.006
782.0	-0.024
782.5	-0.021
783.0	-0.010
783.5	-0.003
784.0	0.008
784.5	0.007
785.0	0.002
785.5	-0.009
786.0	-0.019
786.5	-0.026
787.0	-0.026
787.5	-0.022
788.0	-0.017
788.5	-0.011
789.0	0.002
789.5	0.004
790.0	0.005
790.5	-0.013
791.0	-0.021
791.5	-0.025
792.0	-0.019
792.5	-0.020
793.0	-0.009
793.5	0.005
794.0	0.020
794.5	0.018
795.0	0.018
795.5	0.003
796.0	0.006
796.5	-0.002
797.0	0.003
797.5	0.012
798.0	0.015
798.5	0.011
799.0	0.004
799.5	-0.004
800.0	-0.003
800.5	-0.010
801.0	-0.025
801.5	-0.043
802.0	-0.059
802.5	-0.062
803.0	-0.069
803.5	-0.070
804.0	-0.057
804.5	-0.039
805.0	-0.020
805.5	-0.017
806.0	-0.019
806.5	-0.019
807.0	-0.021
807.5	-0.012
808.0	-0.005
808.5	-0.010
809.0	-0.008
809.5	-0.012
810.0	-0.020
810.5	-0.021
811.0	-0.013
811.5	-0.013
812.0	-0.003
812.5	0.000
813.0	0.004
813.5	0.005
814.0	0.012
814.5	0.011
815.0	0.001
815.5	-0.010
816.0	-0.027
816.5	-0.041
817.0	-0.045
817.5	-0.047
818.0	-0.029
818.5	-0.017
819.0	-0.006
819.5	-0.002
820.0	-0.008
820.5	-0.022
821.0	-0.039
821.5	-0.048
822.0	-0.050
822.5	-0.042
823.0	-0.030
823.5	-0.030
824.0	-0.026
824.5	-0.024
825.0	-0.019
825.5	-0.017
826.0	-0.019
826.5	-0.015
827.0	-0.005
827.5	0.008
828.0	0.016
828.5	0.017
829.0	0.013
829.5	0.001
830.0	-0.012
830.5	-0.032
831.0	-0.045
831.5	-0.056
832.0	-0.057
832.5	-0.050
833.0	-0.043
833.5	-0.033
834.0	-0.014
834.5	-0.006
835.0	-0.001
835.5	-0.002
836.0	0.000
836.5	-0.016
837.0	-0.029
837.5	-0.030
838.0	-0.038
838.5	-0.041
839.0	-0.038
839.5	-0.040
840.0	-0.038
840.5	-0.037
841.0	-0.031
841.5	-0.041
842.0	-0.040
842.5	-0.034
843.0	-0.027
843.5	-0.029
844.0	-0.030
844.5	-0.025
845.0	-0.025
845.5	-0.016
846.0	-0.017
846.5	-0.023
847.0	-0.018
847.5	-0.016
848.0	-0.010
848.5	-0.015
849.0	-0.023
849.5	-0.030
850.0	-0.036


Sample 3
4/21/2023 2:05 PM
Wavelength (nm)	10mm Absorbance
//WLCalib: Shift 	0.02000	
//WLCalib: 261S 	-0.34000	
//WLCalib: 362S 	-0.41000	
//WLCalib: 484S 	-0.30000	
//WLCalib: 529S 	-0.49000	
//WLCalib: 823S 	-0.33000	
//QSpecEnd: 
190.0	4.652
190.5	4.765
191.0	4.672
191.5	4.458
192.0	4.234
192.5	4.078
193.0	4.020
193.5	4.118
194.0	4.087
194.5	4.070
195.0	4.114
195.5	4.045
196.0	3.974
196.5	3.756
197.0	3.690
197.5	3.741
198.0	3.626
198.5	3.616
199.0	3.312
199.5	3.212
200.0	3.170
200.5	2.818
201.0	2.696
201.5	2.404
202.0	2.489
202.5	2.397
203.0	2.346
203.5	2.396
204.0	2.422
204.5	2.458
205.0	2.275
205.5	1.843
206.0	1.811
206.5	1.478
207.0	1.431
207.5	1.000
208.0	0.964
208.5	0.870
209.0	0.931
209.5	0.755
210.0	0.738
210.5	0.634
211.0	1.088
211.5	1.294
212.0	1.591
212.5	1.882
213.0	2.533
213.5	2.840
214.0	3.355
214.5	3.469
215.0	3.709
215.5	4.074
216.0	4.655
216.5	5.144
217.0	5.674
217.5	6.247
218.0	6.763
218.5	7.227
219.0	7.762
219.5	8.194
220.0	8.823
220.5	9.522
221.0	10.220
221.5	10.908
222.0	11.529
222.5	12.045
223.0	12.500
223.5	12.907
224.0	13.356
224.5	13.869
225.0	14.439
225.5	15.106
226.0	16.025
226.5	17.246
227.0	18.729
227.5	20.324
228.0	21.867
228.5	23.192
229.0	24.191
229.5	24.750
230.0	24.842
230.5	24.515
231.0	23.995
231.5	23.472
232.0	23.087
232.5	22.880
233.0	22.831
233.5	22.927
234.0	23.162
234.5	23.453
235.0	23.716
235.5	23.881
236.0	23.946
236.5	23.971
237.0	23.991
237.5	24.014
238.0	24.043
238.5	24.119
239.0	24.302
239.5	24.727
240.0	25.366
240.5	25.927
241.0	26.254
241.5	26.242
242.0	25.889
242.5	25.531
243.0	25.014
243.5	24.238
244.0	23.503
244.5	22.868
245.0	22.212
245.5	21.508
246.0	20.649
246.5	19.820
247.0	19.177
247.5	18.798
248.0	18.372
248.5	17.847
249.0	17.386
249.5	16.891
250.0	16.378
250.5	15.896
251.0	15.428
251.5	15.109
252.0	14.805
252.5	14.498
253.0	14.244
253.5	13.972
254.0	13.797
254.5	13.658
255.0	13.492
255.5	13.347
256.0	13.237
256.5	13.138
257.0	13.023
257.5	12.946
258.0	12.880
258.5	12.798
259.0	12.763
259.5	12.731
260.0	12.718
260.5	12.721
261.0	12.725
261.5	12.729
262.0	12.709
262.5	12.749
263.0	12.751
263.5	12.779
264.0	12.812
264.5	12.846
265.0	12.850
265.5	12.897
266.0	12.919
266.5	12.920
267.0	12.891
267.5	12.906
268.0	12.893
268.5	12.899
269.0	12.898
269.5	12.852
270.0	12.795
270.5	12.763
271.0	12.710
271.5	12.635
272.0	12.552
272.5	12.479
273.0	12.410
273.5	12.332
274.0	12.250
274.5	12.137
275.0	12.046
275.5	11.953
276.0	11.877
276.5	11.812
277.0	11.750
277.5	11.700
278.0	11.650
278.5	11.603
279.0	11.555
279.5	11.524
280.0	11.487
280.5	11.432
281.0	11.386
281.5	11.351
282.0	11.299
282.5	11.238
283.0	11.153
283.5	11.054
284.0	10.962
284.5	10.859
285.0	10.735
285.5	10.602
286.0	10.475
286.5	10.352
287.0	10.215
287.5	10.075
288.0	9.930
288.5	9.769
289.0	9.618
289.5	9.462
290.0	9.302
290.5	9.157
291.0	9.012
291.5	8.885
292.0	8.753
292.5	8.642
293.0	8.542
293.5	8.448
294.0	8.373
294.5	8.310
295.0	8.260
295.5	8.226
296.0	8.192
296.5	8.175
297.0	8.146
297.5	8.124
298.0	8.114
298.5	8.100
299.0	8.085
299.5	8.079
300.0	8.075
300.5	8.073
301.0	8.067
301.5	8.064
302.0	8.055
302.5	8.053
303.0	8.059
303.5	8.056
304.0	8.052
304.5	8.040
305.0	8.047
305.5	8.048
306.0	8.044
306.5	8.047
307.0	8.049
307.5	8.054
308.0	8.065
308.5	8.064
309.0	8.059
309.5	8.049
310.0	8.061
310.5	8.055
311.0	8.056
311.5	8.069
312.0	8.079
312.5	8.090
313.0	8.099
313.5	8.103
314.0	8.106
314.5	8.098
315.0	8.101
315.5	8.101
316.0	8.109
316.5	8.122
317.0	8.138
317.5	8.147
318.0	8.149
318.5	8.160
319.0	8.177
319.5	8.180
320.0	8.202
320.5	8.208
321.0	8.222
321.5	8.239
322.0	8.237
322.5	8.224
323.0	8.216
323.5	8.223
324.0	8.233
324.5	8.236
325.0	8.251
325.5	8.254
326.0	8.265
326.5	8.272
327.0	8.259
327.5	8.246
328.0	8.244
328.5	8.253
329.0	8.249
329.5	8.248
330.0	8.250
330.5	8.251
331.0	8.242
331.5	8.227
332.0	8.215
332.5	8.204
333.0	8.201
333.5	8.196
334.0	8.178
334.5	8.171
335.0	8.163
335.5	8.132
336.0	8.099
336.5	8.075
337.0	8.061
337.5	8.047
338.0	8.042
338.5	8.036
339.0	8.023
339.5	8.008
340.0	7.992
340.5	7.954
341.0	7.917
341.5	7.894
342.0	7.865
342.5	7.835
343.0	7.811
343.5	7.788
344.0	7.752
344.5	7.720
345.0	7.691
345.5	7.650
346.0	7.614
346.5	7.588
347.0	7.553
347.5	7.517
348.0	7.484
348.5	7.452
349.0	7.410
349.5	7.374
350.0	7.323
350.5	7.270
351.0	7.229
351.5	7.182
352.0	7.136
352.5	7.089
353.0	7.047
353.5	6.998
354.0	6.951
354.5	6.915
355.0	6.867
355.5	6.821
356.0	6.785
356.5	6.737
357.0	6.693
357.5	6.644
358.0	6.598
358.5	6.549
359.0	6.502
359.5	6.448
360.0	6.388
360.5	6.323
361.0	6.259
361.5	6.191
362.0	6.133
362.5	6.069
363.0	6.014
363.5	5.960
364.0	5.903
364.5	5.845
365.0	5.788
365.5	5.725
366.0	5.659
366.5	5.594
367.0	5.531
367.5	5.451
368.0	5.383
368.5	5.311
369.0	5.240
369.5	5.175
370.0	5.108
370.5	5.038
371.0	4.969
371.5	4.906
372.0	4.842
372.5	4.769
373.0	4.699
373.5	4.628
374.0	4.552
374.5	4.475
375.0	4.398
375.5	4.320
376.0	4.248
376.5	4.179
377.0	4.108
377.5	4.031
378.0	3.959
378.5	3.890
379.0	3.820
379.5	3.748
380.0	3.681
380.5	3.616
381.0	3.550
381.5	3.480
382.0	3.402
382.5	3.323
383.0	3.251
383.5	3.186
384.0	3.120
384.5	3.057
385.0	3.000
385.5	2.944
386.0	2.886
386.5	2.822
387.0	2.756
387.5	2.690
388.0	2.624
388.5	2.564
389.0	2.503
389.5	2.449
390.0	2.395
390.5	2.340
391.0	2.287
391.5	2.228
392.0	2.174
392.5	2.121
393.0	2.068
393.5	2.021
394.0	1.976
394.5	1.930
395.0	1.885
395.5	1.840
396.0	1.795
396.5	1.750
397.0	1.711
397.5	1.674
398.0	1.635
398.5	1.596
399.0	1.558
399.5	1.517
400.0	1.480
400.5	1.445
401.0	1.410
401.5	1.374
402.0	1.341
402.5	1.309
403.0	1.275
403.5	1.240
404.0	1.210
404.5	1.183
405.0	1.163
405.5	1.142
406.0	1.120
406.5	1.097
407.0	1.073
407.5	1.052
408.0	1.031
408.5	1.013
409.0	0.992
409.5	0.976
410.0	0.960
410.5	0.944
411.0	0.928
411.5	0.909
412.0	0.892
412.5	0.879
413.0	0.867
413.5	0.856
414.0	0.842
414.5	0.831
415.0	0.820
415.5	0.811
416.0	0.800
416.5	0.787
417.0	0.776
417.5	0.759
418.0	0.743
418.5	0.734
419.0	0.728
419.5	0.723
420.0	0.720
420.5	0.715
421.0	0.710
421.5	0.706
422.0	0.702
422.5	0.692
423.0	0.684
423.5	0.683
424.0	0.680
424.5	0.675
425.0	0.669
425.5	0.660
426.0	0.655
426.5	0.651
427.0	0.647
427.5	0.644
428.0	0.639
428.5	0.635
429.0	0.629
429.5	0.627
430.0	0.625
430.5	0.621
431.0	0.621
431.5	0.623
432.0	0.622
432.5	0.621
433.0	0.617
433.5	0.615
434.0	0.615
434.5	0.616
435.0	0.617
435.5	0.619
436.0	0.620
436.5	0.618
437.0	0.612
437.5	0.606
438.0	0.597
438.5	0.591
439.0	0.591
439.5	0.591
440.0	0.591
440.5	0.594
441.0	0.592
441.5	0.590
442.0	0.590
442.5	0.592
443.0	0.587
443.5	0.587
444.0	0.589
444.5	0.589
445.0	0.589
445.5	0.590
446.0	0.588
446.5	0.590
447.0	0.596
447.5	0.601
448.0	0.601
448.5	0.602
449.0	0.604
449.5	0.603
450.0	0.601
450.5	0.596
451.0	0.592
451.5	0.590
452.0	0.586
452.5	0.582
453.0	0.576
453.5	0.575
454.0	0.576
454.5	0.576
455.0	0.576
455.5	0.576
456.0	0.577
456.5	0.579
457.0	0.578
457.5	0.576
458.0	0.575
458.5	0.577
459.0	0.580
459.5	0.579
460.0	0.578
460.5	0.578
461.0	0.577
461.5	0.576
462.0	0.572
462.5	0.570
463.0	0.566
463.5	0.562
464.0	0.557
464.5	0.555
465.0	0.554
465.5	0.556
466.0	0.556
466.5	0.555
467.0	0.553
467.5	0.552
468.0	0.551
468.5	0.549
469.0	0.543
469.5	0.541
470.0	0.542
470.5	0.542
471.0	0.546
471.5	0.546
472.0	0.545
472.5	0.546
473.0	0.544
473.5	0.544
474.0	0.539
474.5	0.532
475.0	0.530
475.5	0.530
476.0	0.530
476.5	0.529
477.0	0.528
477.5	0.530
478.0	0.531
478.5	0.534
479.0	0.532
479.5	0.527
480.0	0.522
480.5	0.519
481.0	0.516
481.5	0.516
482.0	0.518
482.5	0.519
483.0	0.521
483.5	0.521
484.0	0.521
484.5	0.516
485.0	0.510
485.5	0.504
486.0	0.501
486.5	0.500
487.0	0.504
487.5	0.504
488.0	0.505
488.5	0.505
489.0	0.507
489.5	0.506
490.0	0.502
490.5	0.497
491.0	0.494
491.5	0.493
492.0	0.496
492.5	0.493
493.0	0.488
493.5	0.480
494.0	0.474
494.5	0.471
495.0	0.465
495.5	0.460
496.0	0.458
496.5	0.460
497.0	0.462
497.5	0.459
498.0	0.460
498.5	0.461
499.0	0.465
499.5	0.467
500.0	0.467
500.5	0.465
501.0	0.460
501.5	0.458
502.0	0.454
502.5	0.445
503.0	0.442
503.5	0.438
504.0	0.435
504.5	0.434
505.0	0.433
505.5	0.432
506.0	0.432
506.5	0.434
507.0	0.433
507.5	0.427
508.0	0.420
508.5	0.412
509.0	0.404
509.5	0.401
510.0	0.399
510.5	0.400
511.0	0.401
511.5	0.397
512.0	0.396
512.5	0.394
513.0	0.392
513.5	0.390
514.0	0.389
514.5	0.388
515.0	0.385
515.5	0.380
516.0	0.374
516.5	0.369
517.0	0.367
517.5	0.366
518.0	0.368
518.5	0.371
519.0	0.372
519.5	0.374
520.0	0.370
520.5	0.364
521.0	0.362
521.5	0.360
522.0	0.358
522.5	0.352
523.0	0.348
523.5	0.345
524.0	0.343
524.5	0.343
525.0	0.339
525.5	0.340
526.0	0.341
526.5	0.339
527.0	0.336
527.5	0.333
528.0	0.331
528.5	0.330
529.0	0.330
529.5	0.329
530.0	0.332
530.5	0.336
531.0	0.334
531.5	0.331
532.0	0.329
532.5	0.328
533.0	0.322
533.5	0.315
534.0	0.309
534.5	0.304
535.0	0.303
535.5	0.302
536.0	0.301
536.5	0.300
537.0	0.296
537.5	0.293
538.0	0.290
538.5	0.284
539.0	0.277
539.5	0.272
540.0	0.269
540.5	0.270
541.0	0.273
541.5	0.272
542.0	0.271
542.5	0.272
543.0	0.271
543.5	0.265
544.0	0.260
544.5	0.253
545.0	0.247
545.5	0.246
546.0	0.247
546.5	0.245
547.0	0.246
547.5	0.249
548.0	0.251
548.5	0.250
549.0	0.245
549.5	0.235
550.0	0.226
550.5	0.219
551.0	0.216
551.5	0.214
552.0	0.214
552.5	0.217
553.0	0.222
553.5	0.221
554.0	0.219
554.5	0.211
555.0	0.208
555.5	0.212
556.0	0.210
556.5	0.210
557.0	0.204
557.5	0.198
558.0	0.194
558.5	0.188
559.0	0.185
559.5	0.182
560.0	0.185
560.5	0.192
561.0	0.196
561.5	0.197
562.0	0.195
562.5	0.190
563.0	0.185
563.5	0.179
564.0	0.174
564.5	0.170
565.0	0.169
565.5	0.166
566.0	0.166
566.5	0.163
567.0	0.163
567.5	0.162
568.0	0.162
568.5	0.162
569.0	0.163
569.5	0.169
570.0	0.171
570.5	0.171
571.0	0.165
571.5	0.160
572.0	0.157
572.5	0.153
573.0	0.146
573.5	0.138
574.0	0.136
574.5	0.139
575.0	0.141
575.5	0.148
576.0	0.149
576.5	0.149
577.0	0.150
577.5	0.150
578.0	0.141
578.5	0.137
579.0	0.129
579.5	0.130
580.0	0.132
580.5	0.131
581.0	0.124
581.5	0.121
582.0	0.117
582.5	0.113
583.0	0.105
583.5	0.099
584.0	0.097
584.5	0.102
585.0	0.110
585.5	0.115
586.0	0.115
586.5	0.121
587.0	0.119
587.5	0.116
588.0	0.111
588.5	0.103
589.0	0.102
589.5	0.098
590.0	0.097
590.5	0.092
591.0	0.090
591.5	0.090
592.0	0.090
592.5	0.088
593.0	0.089
593.5	0.092
594.0	0.092
594.5	0.090
595.0	0.088
595.5	0.084
596.0	0.087
596.5	0.087
597.0	0.088
597.5	0.091
598.0	0.093
598.5	0.092
599.0	0.090
599.5	0.092
600.0	0.092
600.5	0.093
601.0	0.094
601.5	0.092
602.0	0.086
602.5	0.085
603.0	0.078
603.5	0.069
604.0	0.064
604.5	0.064
605.0	0.067
605.5	0.076
606.0	0.079
606.5	0.084
607.0	0.089
607.5	0.095
608.0	0.094
608.5	0.094
609.0	0.093
609.5	0.088
610.0	0.087
610.5	0.088
611.0	0.083
611.5	0.076
612.0	0.073
612.5	0.067
613.0	0.062
613.5	0.057
614.0	0.052
614.5	0.045
615.0	0.044
615.5	0.049
616.0	0.054
616.5	0.059
617.0	0.062
617.5	0.063
618.0	0.064
618.5	0.059
619.0	0.055
619.5	0.047
620.0	0.045
620.5	0.048
621.0	0.055
621.5	0.061
622.0	0.069
622.5	0.070
623.0	0.067
623.5	0.062
624.0	0.056
624.5	0.050
625.0	0.048
625.5	0.046
626.0	0.045
626.5	0.046
627.0	0.050
627.5	0.048
628.0	0.045
628.5	0.039
629.0	0.034
629.5	0.031
630.0	0.028
630.5	0.031
631.0	0.035
631.5	0.036
632.0	0.038
632.5	0.041
633.0	0.043
633.5	0.034
634.0	0.030
634.5	0.024
635.0	0.020
635.5	0.023
636.0	0.026
636.5	0.025
637.0	0.030
637.5	0.032
638.0	0.037
638.5	0.034
639.0	0.034
639.5	0.034
640.0	0.034
640.5	0.036
641.0	0.033
641.5	0.033
642.0	0.031
642.5	0.025
643.0	0.022
643.5	0.020
644.0	0.017
644.5	0.019
645.0	0.024
645.5	0.029
646.0	0.026
646.5	0.029
647.0	0.036
647.5	0.038
648.0	0.035
648.5	0.033
649.0	0.027
649.5	0.027
650.0	0.025
650.5	0.028
651.0	0.026
651.5	0.032
652.0	0.037
652.5	0.035
653.0	0.033
653.5	0.026
654.0	0.018
654.5	0.015
655.0	0.011
655.5	0.011
656.0	0.012
656.5	0.017
657.0	0.022
657.5	0.027
658.0	0.029
658.5	0.025
659.0	0.023
659.5	0.024
660.0	0.016
660.5	0.008
661.0	0.003
661.5	0.008
662.0	0.014
662.5	0.018
663.0	0.019
663.5	0.025
664.0	0.033
664.5	0.037
665.0	0.040
665.5	0.039
666.0	0.039
666.5	0.042
667.0	0.037
667.5	0.025
668.0	0.015
668.5	0.014
669.0	0.012
669.5	0.012
670.0	0.015
670.5	0.015
671.0	0.018
671.5	0.025
672.0	0.031
672.5	0.029
673.0	0.025
673.5	0.016
674.0	0.008
674.5	-0.001
675.0	-0.010
675.5	-0.018
676.0	-0.021
676.5	-0.012
677.0	0.001
677.5	0.007
678.0	0.010
678.5	0.011
679.0	0.010
679.5	0.001
680.0	-0.002
680.5	-0.006
681.0	-0.004
681.5	-0.002
682.0	0.002
682.5	0.001
683.0	0.006
683.5	0.008
684.0	-0.002
684.5	-0.014
685.0	-0.010
685.5	-0.009
686.0	-0.004
686.5	-0.005
687.0	0.005
687.5	0.009
688.0	0.012
688.5	0.011
689.0	-0.001
689.5	-0.007
690.0	-0.005
690.5	-0.008
691.0	-0.011
691.5	-0.011
692.0	0.001
692.5	0.004
693.0	0.009
693.5	0.016
694.0	0.017
694.5	0.017
695.0	0.011
695.5	-0.001
696.0	-0.012
696.5	-0.017
697.0	-0.013
697.5	-0.007
698.0	0.005
698.5	0.015
699.0	0.024
699.5	0.030
700.0	0.025
700.5	0.024
701.0	0.017
701.5	0.009
702.0	0.012
702.5	0.011
703.0	0.009
703.5	0.005
704.0	0.002
704.5	0.002
705.0	-0.005
705.5	-0.007
706.0	-0.014
706.5	-0.012
707.0	0.003
707.5	0.012
708.0	0.018
708.5	0.025
709.0	0.026
709.5	0.024
710.0	0.012
710.5	-0.003
711.0	-0.011
711.5	-0.012
712.0	-0.006
712.5	-0.009
713.0	-0.016
713.5	-0.017
714.0	-0.019
714.5	-0.025
715.0	-0.027
715.5	-0.030
716.0	-0.021
716.5	-0.008
717.0	0.001
717.5	0.007
718.0	0.003
718.5	0.001
719.0	-0.005
719.5	-0.013
720.0	-0.017
720.5	-0.025
721.0	-0.025
721.5	-0.030
722.0	-0.035
722.5	-0.034
723.0	-0.039
723.5	-0.041
724.0	-0.042
724.5	-0.037
725.0	-0.025
725.5	-0.018
726.0	-0.016
726.5	-0.019
727.0	-0.022
727.5	-0.017
728.0	-0.018
728.5	-0.022
729.0	-0.027
729.5	-0.027
730.0	-0.018
730.5	-0.017
731.0	-0.015
731.5	-0.007
732.0	0.005
732.5	0.020
733.0	0.020
733.5	0.014
734.0	0.007
734.5	0.005
735.0	0.008
735.5	0.004
736.0	-0.001
736.5	-0.004
737.0	-0.002
737.5	-0.007
738.0	-0.019
738.5	-0.023
739.0	-0.020
739.5	-0.006
740.0	0.004
740.5	0.011
741.0	0.012
741.5	0.014
742.0	0.012
742.5	0.008
743.0	-0.001
743.5	-0.003
744.0	0.003
744.5	0.008
745.0	0.004
745.5	0.002
746.0	0.005
746.5	0.012
747.0	0.008
747.5	0.000
748.0	-0.013
748.5	-0.019
749.0	-0.018
749.5	-0.023
750.0	-0.021
750.5	-0.011
751.0	0.006
751.5	0.020
752.0	0.021
752.5	0.024
753.0	0.025
753.5	0.026
754.0	0.023
754.5	0.017
755.0	0.019
755.5	0.013
756.0	0.001
756.5	-0.011
757.0	-0.017
757.5	-0.014
758.0	-0.007
758.5	0.000
759.0	0.001
759.5	0.007
760.0	0.010
760.5	0.004
761.0	-0.002
761.5	0.001
762.0	0.001
762.5	0.003
763.0	0.003
763.5	-0.001
764.0	-0.011
764.5	-0.008
765.0	-0.015
765.5	-0.014
766.0	-0.013
766.5	-0.004
767.0	0.004
767.5	0.004
768.0	-0.002
768.5	-0.006
769.0	-0.006
769.5	0.002
770.0	0.004
770.5	0.000
771.0	-0.004
771.5	-0.006
772.0	-0.010
772.5	-0.022
773.0	-0.034
773.5	-0.037
774.0	-0.030
774.5	-0.020
775.0	-0.015
775.5	-0.022
776.0	-0.016
776.5	-0.022
777.0	-0.026
777.5	-0.026
778.0	-0.021
778.5	-0.017
779.0	-0.006
779.5	0.001
780.0	-0.002
780.5	-0.006
781.0	-0.005
781.5	-0.016
782.0	-0.026
782.5	-0.028
783.0	-0.020
783.5	-0.010
784.0	0.009
784.5	0.018
785.0	0.016
785.5	0.010
786.0	0.006
786.5	-0.004
787.0	-0.009
787.5	-0.015
788.0	-0.014
788.5	-0.009
789.0	0.006
789.5	0.010
790.0	0.004
790.5	-0.011
791.0	-0.018
791.5	-0.021
792.0	-0.019
792.5	-0.023
793.0	-0.021
793.5	-0.015
794.0	-0.006
794.5	-0.005
795.0	-0.007
795.5	-0.012
796.0	-0.003
796.5	0.001
797.0	0.009
797.5	0.016
798.0	0.014
798.5	0.007
799.0	-0.007
799.5	-0.019
800.0	-0.025
800.5	-0.028
801.0	-0.032
801.5	-0.039
802.0	-0.037
802.5	-0.034
803.0	-0.046
803.5	-0.045
804.0	-0.042
804.5	-0.029
805.0	-0.023
805.5	-0.018
806.0	-0.016
806.5	-0.017
807.0	-0.013
807.5	-0.013
808.0	-0.012
808.5	-0.008
809.0	-0.004
809.5	-0.004
810.0	-0.017
810.5	-0.013
811.0	-0.013
811.5	-0.021
812.0	-0.020
812.5	-0.024
813.0	-0.014
813.5	-0.011
814.0	-0.007
814.5	-0.005
815.0	-0.008
815.5	-0.012
816.0	-0.032
816.5	-0.045
817.0	-0.051
817.5	-0.055
818.0	-0.043
818.5	-0.032
819.0	-0.024
819.5	-0.018
820.0	-0.020
820.5	-0.034
821.0	-0.046
821.5	-0.049
822.0	-0.050
822.5	-0.042
823.0	-0.029
823.5	-0.027
824.0	-0.028
824.5	-0.029
825.0	-0.026
825.5	-0.025
826.0	-0.024
826.5	-0.023
827.0	-0.011
827.5	0.004
828.0	0.015
828.5	0.016
829.0	0.002
829.5	-0.017
830.0	-0.041
830.5	-0.063
831.0	-0.077
831.5	-0.089
832.0	-0.085
832.5	-0.071
833.0	-0.056
833.5	-0.044
834.0	-0.033
834.5	-0.020
835.0	-0.015
835.5	-0.007
836.0	-0.005
836.5	-0.018
837.0	-0.035
837.5	-0.039
838.0	-0.045
838.5	-0.046
839.0	-0.040
839.5	-0.039
840.0	-0.037
840.5	-0.035
841.0	-0.034
841.5	-0.044
842.0	-0.047
842.5	-0.040
843.0	-0.036
843.5	-0.036
844.0	-0.031
844.5	-0.030
845.0	-0.040
845.5	-0.036
846.0	-0.034
846.5	-0.031
847.0	-0.023
847.5	-0.027
848.0	-0.031
848.5	-0.043
849.0	-0.041
849.5	-0.047
850.0	-0.054


Sample 4
4/21/2023 2:09 PM
Wavelength (nm)	10mm Absorbance
//WLCalib: Shift 	0.02000	
//WLCalib: 261S 	-0.34000	
//WLCalib: 362S 	-0.41000	
//WLCalib: 484S 	-0.30000	
//WLCalib: 529S 	-0.49000	
//WLCalib: 823S 	-0.33000	
//QSpecEnd: 
190.0	4.466
190.5	4.432
191.0	4.346
191.5	4.428
192.0	4.606
192.5	4.532
193.0	4.478
193.5	4.375
194.0	4.298
194.5	4.294
195.0	4.328
195.5	4.414
196.0	4.252
196.5	4.335
197.0	4.196
197.5	4.071
198.0	3.769
198.5	3.586
199.0	3.283
199.5	2.921
200.0	2.794
200.5	2.715
201.0	2.711
201.5	2.943
202.0	3.049
202.5	3.375
203.0	3.595
203.5	3.630
204.0	3.380
204.5	2.856
205.0	2.649
205.5	2.299
206.0	1.948
206.5	1.511
207.0	1.263
207.5	1.356
208.0	1.604
208.5	1.415
209.0	1.116
209.5	0.882
210.0	1.029
210.5	1.179
211.0	1.309
211.5	1.531
212.0	1.885
212.5	2.452
213.0	3.020
213.5	3.041
214.0	3.150
214.5	3.452
215.0	3.655
215.5	4.032
216.0	4.379
216.5	4.690
217.0	5.045
217.5	5.553
218.0	6.113
218.5	6.555
219.0	7.289
219.5	8.008
220.0	8.536
220.5	9.234
221.0	9.884
221.5	10.420
222.0	10.953
222.5	11.403
223.0	11.814
223.5	12.235
224.0	12.790
224.5	13.347
225.0	13.935
225.5	14.611
226.0	15.538
226.5	16.779
227.0	18.264
227.5	19.825
228.0	21.373
228.5	22.689
229.0	23.705
229.5	24.273
230.0	24.361
230.5	24.052
231.0	23.545
231.5	23.037
232.0	22.651
232.5	22.447
233.0	22.397
233.5	22.498
234.0	22.741
234.5	23.075
235.0	23.300
235.5	23.433
236.0	23.481
236.5	23.504
237.0	23.563
237.5	23.602
238.0	23.625
238.5	23.735
239.0	23.824
239.5	24.069
240.0	24.625
240.5	25.367
241.0	26.000
241.5	26.516
242.0	26.818
242.5	26.858
243.0	26.578
243.5	25.687
244.0	24.686
244.5	23.746
245.0	22.937
245.5	22.078
246.0	21.251
246.5	20.556
247.0	19.985
247.5	19.589
248.0	19.103
248.5	18.521
249.0	18.138
249.5	17.683
250.0	17.166
250.5	16.677
251.0	16.254
251.5	15.811
252.0	15.461
252.5	15.139
253.0	14.868
253.5	14.638
254.0	14.445
254.5	14.263
255.0	14.084
255.5	13.955
256.0	13.808
256.5	13.686
257.0	13.616
257.5	13.516
258.0	13.449
258.5	13.424
259.0	13.404
259.5	13.378
260.0	13.351
260.5	13.335
261.0	13.309
261.5	13.315
262.0	13.317
262.5	13.336
263.0	13.363
263.5	13.406
264.0	13.453
264.5	13.474
265.0	13.495
265.5	13.502
266.0	13.472
266.5	13.467
267.0	13.455
267.5	13.460
268.0	13.442
268.5	13.481
269.0	13.488
269.5	13.439
270.0	13.388
270.5	13.308
271.0	13.218
271.5	13.144
272.0	13.059
272.5	12.990
273.0	12.920
273.5	12.890
274.0	12.817
274.5	12.727
275.0	12.644
275.5	12.549
276.0	12.466
276.5	12.372
277.0	12.289
277.5	12.213
278.0	12.167
278.5	12.130
279.0	12.097
279.5	12.070
280.0	12.043
280.5	11.990
281.0	11.933
281.5	11.868
282.0	11.800
282.5	11.737
283.0	11.681
283.5	11.585
284.0	11.481
284.5	11.380
285.0	11.277
285.5	11.142
286.0	11.003
286.5	10.872
287.0	10.722
287.5	10.576
288.0	10.411
288.5	10.240
289.0	10.072
289.5	9.915
290.0	9.757
290.5	9.601
291.0	9.457
291.5	9.332
292.0	9.207
292.5	9.093
293.0	8.983
293.5	8.893
294.0	8.812
294.5	8.747
295.0	8.683
295.5	8.636
296.0	8.595
296.5	8.575
297.0	8.559
297.5	8.536
298.0	8.522
298.5	8.506
299.0	8.496
299.5	8.483
300.0	8.464
300.5	8.459
301.0	8.453
301.5	8.450
302.0	8.458
302.5	8.467
303.0	8.478
303.5	8.481
304.0	8.489
304.5	8.474
305.0	8.463
305.5	8.458
306.0	8.444
306.5	8.426
307.0	8.422
307.5	8.422
308.0	8.424
308.5	8.434
309.0	8.447
309.5	8.450
310.0	8.463
310.5	8.471
311.0	8.470
311.5	8.473
312.0	8.478
312.5	8.473
313.0	8.474
313.5	8.481
314.0	8.482
314.5	8.478
315.0	8.477
315.5	8.483
316.0	8.495
316.5	8.514
317.0	8.523
317.5	8.525
318.0	8.529
318.5	8.537
319.0	8.555
319.5	8.563
320.0	8.568
320.5	8.576
321.0	8.593
321.5	8.612
322.0	8.616
322.5	8.613
323.0	8.609
323.5	8.620
324.0	8.633
324.5	8.631
325.0	8.623
325.5	8.611
326.0	8.620
326.5	8.632
327.0	8.635
327.5	8.625
328.0	8.628
328.5	8.635
329.0	8.613
329.5	8.602
330.0	8.590
330.5	8.579
331.0	8.571
331.5	8.566
332.0	8.569
332.5	8.567
333.0	8.579
333.5	8.579
334.0	8.570
334.5	8.565
335.0	8.543
335.5	8.522
336.0	8.492
336.5	8.461
337.0	8.447
337.5	8.422
338.0	8.416
338.5	8.410
339.0	8.397
339.5	8.372
340.0	8.349
340.5	8.323
341.0	8.289
341.5	8.259
342.0	8.235
342.5	8.208
343.0	8.190
343.5	8.174
344.0	8.135
344.5	8.093
345.0	8.064
345.5	8.024
346.0	7.981
346.5	7.945
347.0	7.909
347.5	7.875
348.0	7.832
348.5	7.801
349.0	7.755
349.5	7.710
350.0	7.685
350.5	7.653
351.0	7.614
351.5	7.575
352.0	7.532
352.5	7.480
353.0	7.422
353.5	7.366
354.0	7.305
354.5	7.251
355.0	7.208
355.5	7.158
356.0	7.117
356.5	7.075
357.0	7.030
357.5	6.988
358.0	6.940
358.5	6.881
359.0	6.823
359.5	6.764
360.0	6.707
360.5	6.644
361.0	6.581
361.5	6.522
362.0	6.466
362.5	6.412
363.0	6.357
363.5	6.296
364.0	6.233
364.5	6.175
365.0	6.112
365.5	6.039
366.0	5.964
366.5	5.900
367.0	5.834
367.5	5.769
368.0	5.705
368.5	5.635
369.0	5.553
369.5	5.481
370.0	5.404
370.5	5.327
371.0	5.255
371.5	5.187
372.0	5.120
372.5	5.057
373.0	4.987
373.5	4.915
374.0	4.839
374.5	4.767
375.0	4.691
375.5	4.613
376.0	4.534
376.5	4.455
377.0	4.381
377.5	4.306
378.0	4.228
378.5	4.157
379.0	4.089
379.5	4.028
380.0	3.958
380.5	3.890
381.0	3.826
381.5	3.764
382.0	3.689
382.5	3.611
383.0	3.530
383.5	3.449
384.0	3.373
384.5	3.309
385.0	3.242
385.5	3.178
386.0	3.120
386.5	3.057
387.0	2.990
387.5	2.923
388.0	2.858
388.5	2.794
389.0	2.737
389.5	2.682
390.0	2.627
390.5	2.567
391.0	2.510
391.5	2.446
392.0	2.387
392.5	2.327
393.0	2.271
393.5	2.224
394.0	2.179
394.5	2.131
395.0	2.087
395.5	2.043
396.0	2.001
396.5	1.954
397.0	1.911
397.5	1.870
398.0	1.830
398.5	1.793
399.0	1.753
399.5	1.712
400.0	1.676
400.5	1.643
401.0	1.605
401.5	1.567
402.0	1.534
402.5	1.501
403.0	1.467
403.5	1.432
404.0	1.399
404.5	1.370
405.0	1.349
405.5	1.326
406.0	1.303
406.5	1.277
407.0	1.254
407.5	1.233
408.0	1.214
408.5	1.196
409.0	1.177
409.5	1.160
410.0	1.143
410.5	1.124
411.0	1.108
411.5	1.085
412.0	1.070
412.5	1.058
413.0	1.047
413.5	1.038
414.0	1.025
414.5	1.010
415.0	0.997
415.5	0.983
416.0	0.972
416.5	0.960
417.0	0.948
417.5	0.933
418.0	0.920
418.5	0.912
419.0	0.903
419.5	0.898
420.0	0.894
420.5	0.888
421.0	0.885
421.5	0.883
422.0	0.879
422.5	0.872
423.0	0.865
423.5	0.860
424.0	0.858
424.5	0.854
425.0	0.848
425.5	0.840
426.0	0.837
426.5	0.835
427.0	0.831
427.5	0.827
428.0	0.819
428.5	0.813
429.0	0.806
429.5	0.802
430.0	0.799
430.5	0.796
431.0	0.796
431.5	0.797
432.0	0.797
432.5	0.796
433.0	0.791
433.5	0.788
434.0	0.787
434.5	0.790
435.0	0.791
435.5	0.791
436.0	0.791
436.5	0.793
437.0	0.791
437.5	0.787
438.0	0.781
438.5	0.776
439.0	0.773
439.5	0.772
440.0	0.771
440.5	0.774
441.0	0.774
441.5	0.773
442.0	0.773
442.5	0.776
443.0	0.772
443.5	0.768
444.0	0.766
444.5	0.766
445.0	0.766
445.5	0.767
446.0	0.766
446.5	0.770
447.0	0.775
447.5	0.779
448.0	0.780
448.5	0.778
449.0	0.779
449.5	0.776
450.0	0.772
450.5	0.770
451.0	0.766
451.5	0.767
452.0	0.765
452.5	0.762
453.0	0.757
453.5	0.753
454.0	0.754
454.5	0.752
455.0	0.754
455.5	0.755
456.0	0.756
456.5	0.759
457.0	0.759
457.5	0.758
458.0	0.757
458.5	0.760
459.0	0.763
459.5	0.762
460.0	0.764
460.5	0.762
461.0	0.762
461.5	0.760
462.0	0.756
462.5	0.753
463.0	0.750
463.5	0.748
464.0	0.744
464.5	0.741
465.0	0.740
465.5	0.739
466.0	0.739
466.5	0.740
467.0	0.740
467.5	0.742
468.0	0.744
468.5	0.744
469.0	0.740
469.5	0.737
470.0	0.734
470.5	0.734
471.0	0.730
471.5	0.727
472.0	0.727
472.5	0.728
473.0	0.727
473.5	0.724
474.0	0.721
474.5	0.718
475.0	0.716
475.5	0.717
476.0	0.716
476.5	0.715
477.0	0.717
477.5	0.722
478.0	0.721
478.5	0.721
479.0	0.720
479.5	0.714
480.0	0.706
480.5	0.700
481.0	0.697
481.5	0.696
482.0	0.698
482.5	0.700
483.0	0.701
483.5	0.702
484.0	0.701
484.5	0.696
485.0	0.689
485.5	0.686
486.0	0.684
486.5	0.685
487.0	0.688
487.5	0.690
488.0	0.692
488.5	0.693
489.0	0.694
489.5	0.692
490.0	0.687
490.5	0.683
491.0	0.679
491.5	0.678
492.0	0.681
492.5	0.681
493.0	0.676
493.5	0.671
494.0	0.665
494.5	0.659
495.0	0.652
495.5	0.647
496.0	0.643
496.5	0.641
497.0	0.642
497.5	0.641
498.0	0.640
498.5	0.642
499.0	0.644
499.5	0.645
500.0	0.641
500.5	0.638
501.0	0.633
501.5	0.631
502.0	0.631
502.5	0.630
503.0	0.632
503.5	0.632
504.0	0.631
504.5	0.624
505.0	0.617
505.5	0.611
506.0	0.605
506.5	0.606
507.0	0.611
507.5	0.611
508.0	0.609
508.5	0.607
509.0	0.602
509.5	0.595
510.0	0.588
510.5	0.583
511.0	0.577
511.5	0.571
512.0	0.570
512.5	0.567
513.0	0.561
513.5	0.563
514.0	0.562
514.5	0.564
515.0	0.564
515.5	0.563
516.0	0.561
516.5	0.562
517.0	0.559
517.5	0.557
518.0	0.553
518.5	0.552
519.0	0.547
519.5	0.543
520.0	0.536
520.5	0.530
521.0	0.528
521.5	0.528
522.0	0.525
522.5	0.522
523.0	0.521
523.5	0.517
524.0	0.514
524.5	0.514
525.0	0.515
525.5	0.518
526.0	0.516
526.5	0.512
527.0	0.510
527.5	0.508
528.0	0.503
528.5	0.498
529.0	0.493
529.5	0.492
530.0	0.495
530.5	0.495
531.0	0.491
531.5	0.488
532.0	0.488
532.5	0.488
533.0	0.483
533.5	0.475
534.0	0.466
534.5	0.463
535.0	0.462
535.5	0.460
536.0	0.460
536.5	0.460
537.0	0.459
537.5	0.453
538.0	0.448
538.5	0.440
539.0	0.431
539.5	0.428
540.0	0.425
540.5	0.425
541.0	0.426
541.5	0.424
542.0	0.419
542.5	0.417
543.0	0.411
543.5	0.405
544.0	0.401
544.5	0.397
545.0	0.396
545.5	0.397
546.0	0.396
546.5	0.394
547.0	0.390
547.5	0.387
548.0	0.380
548.5	0.373
549.0	0.369
549.5	0.363
550.0	0.364
550.5	0.364
551.0	0.364
551.5	0.363
552.0	0.360
552.5	0.361
553.0	0.359
553.5	0.354
554.0	0.351
554.5	0.345
555.0	0.346
555.5	0.346
556.0	0.346
556.5	0.346
557.0	0.340
557.5	0.334
558.0	0.328
558.5	0.323
559.0	0.318
559.5	0.311
560.0	0.308
560.5	0.307
561.0	0.309
561.5	0.311
562.0	0.308
562.5	0.304
563.0	0.304
563.5	0.302
564.0	0.299
564.5	0.296
565.0	0.293
565.5	0.292
566.0	0.290
566.5	0.289
567.0	0.281
567.5	0.279
568.0	0.280
568.5	0.277
569.0	0.274
569.5	0.277
570.0	0.275
570.5	0.273
571.0	0.267
571.5	0.263
572.0	0.259
572.5	0.259
573.0	0.257
573.5	0.247
574.0	0.244
574.5	0.243
575.0	0.240
575.5	0.243
576.0	0.243
576.5	0.244
577.0	0.248
577.5	0.251
578.0	0.249
578.5	0.245
579.0	0.240
579.5	0.238
580.0	0.233
580.5	0.230
581.0	0.222
581.5	0.220
582.0	0.222
582.5	0.218
583.0	0.212
583.5	0.207
584.0	0.203
584.5	0.202
585.0	0.203
585.5	0.203
586.0	0.202
586.5	0.207
587.0	0.207
587.5	0.205
588.0	0.202
588.5	0.197
589.0	0.196
589.5	0.191
590.0	0.189
590.5	0.183
591.0	0.180
591.5	0.180
592.0	0.181
592.5	0.182
593.0	0.181
593.5	0.183
594.0	0.181
594.5	0.176
595.0	0.171
595.5	0.167
596.0	0.168
596.5	0.169
597.0	0.170
597.5	0.170
598.0	0.165
598.5	0.162
599.0	0.157
599.5	0.154
600.0	0.152
600.5	0.153
601.0	0.156
601.5	0.157
602.0	0.155
602.5	0.155
603.0	0.152
603.5	0.148
604.0	0.148
604.5	0.148
605.0	0.152
605.5	0.158
606.0	0.163
606.5	0.169
607.0	0.168
607.5	0.170
608.0	0.166
608.5	0.161
609.0	0.156
609.5	0.150
610.0	0.149
610.5	0.148
611.0	0.146
611.5	0.143
612.0	0.139
612.5	0.135
613.0	0.129
613.5	0.126
614.0	0.122
614.5	0.116
615.0	0.115
615.5	0.116
616.0	0.118
616.5	0.122
617.0	0.127
617.5	0.127
618.0	0.128
618.5	0.125
619.0	0.124
619.5	0.120
620.0	0.119
620.5	0.120
621.0	0.119
621.5	0.124
622.0	0.125
622.5	0.121
623.0	0.118
623.5	0.111
624.0	0.107
624.5	0.104
625.0	0.101
625.5	0.100
626.0	0.102
626.5	0.106
627.0	0.109
627.5	0.113
628.0	0.113
628.5	0.111
629.0	0.106
629.5	0.103
630.0	0.096
630.5	0.093
631.0	0.095
631.5	0.093
632.0	0.091
632.5	0.094
633.0	0.096
633.5	0.090
634.0	0.090
634.5	0.091
635.0	0.094
635.5	0.097
636.0	0.102
636.5	0.104
637.0	0.107
637.5	0.106
638.0	0.101
638.5	0.093
639.0	0.090
639.5	0.083
640.0	0.080
640.5	0.078
641.0	0.073
641.5	0.075
642.0	0.079
642.5	0.079
643.0	0.078
643.5	0.077
644.0	0.076
644.5	0.075
645.0	0.076
645.5	0.074
646.0	0.070
646.5	0.077
647.0	0.084
647.5	0.087
648.0	0.084
648.5	0.078
649.0	0.070
649.5	0.065
650.0	0.063
650.5	0.066
651.0	0.070
651.5	0.084
652.0	0.089
652.5	0.091
653.0	0.088
653.5	0.077
654.0	0.063
654.5	0.055
655.0	0.046
655.5	0.043
656.0	0.046
656.5	0.054
657.0	0.061
657.5	0.070
658.0	0.076
658.5	0.077
659.0	0.078
659.5	0.076
660.0	0.061
660.5	0.053
661.0	0.048
661.5	0.046
662.0	0.051
662.5	0.055
663.0	0.058
663.5	0.061
664.0	0.068
664.5	0.064
665.0	0.062
665.5	0.067
666.0	0.072
666.5	0.072
667.0	0.071
667.5	0.065
668.0	0.062
668.5	0.056
669.0	0.054
669.5	0.050
670.0	0.051
670.5	0.052
671.0	0.052
671.5	0.057
672.0	0.061
672.5	0.058
673.0	0.053
673.5	0.047
674.0	0.045
674.5	0.041
675.0	0.033
675.5	0.031
676.0	0.029
676.5	0.040
677.0	0.049
677.5	0.050
678.0	0.046
678.5	0.048
679.0	0.048
679.5	0.043
680.0	0.040
680.5	0.039
681.0	0.037
681.5	0.039
682.0	0.039
682.5	0.039
683.0	0.042
683.5	0.038
684.0	0.031
684.5	0.024
685.0	0.029
685.5	0.035
686.0	0.043
686.5	0.046
687.0	0.055
687.5	0.062
688.0	0.068
688.5	0.062
689.0	0.053
689.5	0.045
690.0	0.051
690.5	0.049
691.0	0.045
691.5	0.039
692.0	0.044
692.5	0.042
693.0	0.045
693.5	0.044
694.0	0.039
694.5	0.040
695.0	0.043
695.5	0.039
696.0	0.034
696.5	0.033
697.0	0.036
697.5	0.040
698.0	0.046
698.5	0.046
699.0	0.048
699.5	0.057
700.0	0.063
700.5	0.061
701.0	0.058
701.5	0.055
702.0	0.056
702.5	0.055
703.0	0.048
703.5	0.037
704.0	0.030
704.5	0.026
705.0	0.023
705.5	0.014
706.0	0.013
706.5	0.017
707.0	0.029
707.5	0.037
708.0	0.040
708.5	0.042
709.0	0.044
709.5	0.043
710.0	0.035
710.5	0.029
711.0	0.027
711.5	0.028
712.0	0.032
712.5	0.034
713.0	0.027
713.5	0.022
714.0	0.021
714.5	0.019
715.0	0.020
715.5	0.020
716.0	0.028
716.5	0.041
717.0	0.051
717.5	0.060
718.0	0.055
718.5	0.045
719.0	0.036
719.5	0.022
720.0	0.013
720.5	0.001
721.0	-0.001
721.5	-0.002
722.0	0.000
722.5	0.003
723.0	0.001
723.5	-0.002
724.0	-0.002
724.5	-0.002
725.0	0.010
725.5	0.020
726.0	0.023
726.5	0.026
727.0	0.029
727.5	0.030
728.0	0.025
728.5	0.016
729.0	0.012
729.5	0.008
730.0	0.016
730.5	0.019
731.0	0.021
731.5	0.027
732.0	0.039
732.5	0.049
733.0	0.044
733.5	0.038
734.0	0.034
734.5	0.032
735.0	0.035
735.5	0.030
736.0	0.021
736.5	0.016
737.0	0.019
737.5	0.018
738.0	0.009
738.5	0.007
739.0	0.008
739.5	0.019
740.0	0.030
740.5	0.038
741.0	0.041
741.5	0.048
742.0	0.053
742.5	0.050
743.0	0.044
743.5	0.037
744.0	0.029
744.5	0.031
745.0	0.032
745.5	0.031
746.0	0.035
746.5	0.044
747.0	0.048
747.5	0.043
748.0	0.045
748.5	0.036
749.0	0.035
749.5	0.036
750.0	0.034
750.5	0.034
751.0	0.039
751.5	0.046
752.0	0.049
752.5	0.047
753.0	0.057
753.5	0.060
754.0	0.060
754.5	0.057
755.0	0.053
755.5	0.040
756.0	0.028
756.5	0.020
757.0	0.020
757.5	0.026
758.0	0.034
758.5	0.039
759.0	0.041
759.5	0.040
760.0	0.037
760.5	0.029
761.0	0.027
761.5	0.032
762.0	0.037
762.5	0.038
763.0	0.038
763.5	0.042
764.0	0.041
764.5	0.034
765.0	0.028
765.5	0.029
766.0	0.026
766.5	0.028
767.0	0.030
767.5	0.027
768.0	0.023
768.5	0.020
769.0	0.015
769.5	0.011
770.0	0.006
770.5	0.003
771.0	0.007
771.5	0.014
772.0	0.019
772.5	0.014
773.0	0.001
773.5	-0.006
774.0	-0.004
774.5	-0.003
775.0	-0.005
775.5	-0.007
776.0	0.006
776.5	0.012
777.0	0.009
777.5	0.005
778.0	0.007
778.5	0.014
779.0	0.030
779.5	0.039
780.0	0.038
780.5	0.036
781.0	0.041
781.5	0.033
782.0	0.017
782.5	0.014
783.0	0.028
783.5	0.033
784.0	0.044
784.5	0.038
785.0	0.022
785.5	0.016
786.0	0.008
786.5	-0.002
787.0	-0.002
787.5	0.005
788.0	0.024
788.5	0.033
789.0	0.045
789.5	0.039
790.0	0.028
790.5	0.012
791.0	0.001
791.5	-0.006
792.0	-0.004
792.5	-0.007
793.0	0.008
793.5	0.020
794.0	0.032
794.5	0.034
795.0	0.036
795.5	0.033
796.0	0.041
796.5	0.032
797.0	0.029
797.5	0.032
798.0	0.036
798.5	0.025
799.0	0.018
799.5	0.012
800.0	0.011
800.5	0.010
801.0	0.000
801.5	-0.019
802.0	-0.023
802.5	-0.021
803.0	-0.028
803.5	-0.028
804.0	-0.020
804.5	-0.011
805.0	-0.004
805.5	-0.001
806.0	0.001
806.5	-0.006
807.0	-0.002
807.5	0.005
808.0	0.005
808.5	0.003
809.0	-0.002
809.5	0.003
810.0	-0.003
810.5	0.001
811.0	0.007
811.5	-0.001
812.0	0.018
812.5	0.022
813.0	0.019
813.5	0.015
814.0	0.014
814.5	0.017
815.0	0.005
815.5	-0.003
816.0	-0.016
816.5	-0.017
817.0	-0.006
817.5	-0.009
818.0	0.002
818.5	0.017
819.0	0.024
819.5	0.023
820.0	0.014
820.5	0.002
821.0	-0.008
821.5	-0.009
822.0	-0.007
822.5	0.001
823.0	0.018
823.5	0.023
824.0	0.022
824.5	0.015
825.0	0.009
825.5	0.003
826.0	-0.002
826.5	-0.002
827.0	0.009
827.5	0.022
828.0	0.030
828.5	0.031
829.0	0.025
829.5	0.015
830.0	-0.005
830.5	-0.030
831.0	-0.046
831.5	-0.056
832.0	-0.057
832.5	-0.053
833.0	-0.038
833.5	-0.019
834.0	0.000
834.5	0.018
835.0	0.020
835.5	0.017
836.0	0.010
836.5	-0.004
837.0	-0.011
837.5	-0.011
838.0	-0.012
838.5	-0.013
839.0	-0.004
839.5	-0.001
840.0	0.006
840.5	0.009
841.0	0.000
841.5	-0.004
842.0	-0.005
842.5	-0.006
843.0	-0.009
843.5	-0.011
844.0	-0.008
844.5	-0.005
845.0	0.000
845.5	0.015
846.0	0.012
846.5	0.010
847.0	-0.001
847.5	0.002
848.0	0.009
848.5	-0.005
849.0	-0.007
849.5	-0.006
850.0	-0.006


Sample 5
4/21/2023 2:16 PM
Wavelength (nm)	10mm Absorbance
//WLCalib: Shift 	0.02000	
//WLCalib: 261S 	-0.34000	
//WLCalib: 362S 	-0.41000	
//WLCalib: 484S 	-0.30000	
//WLCalib: 529S 	-0.49000	
//WLCalib: 823S 	-0.33000	
//QSpecEnd: 
190.0	3.826
190.5	3.784
191.0	3.791
191.5	3.883
192.0	3.539
192.5	3.280
193.0	3.127
193.5	2.714
194.0	2.640
194.5	2.683
195.0	2.814
195.5	2.954
196.0	3.289
196.5	3.291
197.0	2.993
197.5	3.061
198.0	2.467
198.5	1.911
199.0	1.896
199.5	1.632
200.0	1.639
200.5	1.767
201.0	1.904
201.5	1.785
202.0	1.593
202.5	1.365
203.0	0.898
203.5	1.027
204.0	0.869
204.5	0.556
205.0	0.682
205.5	0.805
206.0	0.734
206.5	0.713
207.0	0.386
207.5	0.272
208.0	0.395
208.5	0.427
209.0	0.028
209.5	-0.135
210.0	-0.042
210.5	-0.073
211.0	-0.124
211.5	-0.242
212.0	-0.191
212.5	-0.051
213.0	0.078
213.5	0.266
214.0	0.411
214.5	0.620
215.0	1.212
215.5	1.693
216.0	2.334
216.5	2.811
217.0	3.403
217.5	3.903
218.0	4.418
218.5	4.939
219.0	5.345
219.5	5.854
220.0	6.565
220.5	7.223
221.0	7.871
221.5	8.366
222.0	9.012
222.5	9.589
223.0	10.130
223.5	10.645
224.0	11.248
224.5	11.849
225.0	12.487
225.5	13.200
226.0	14.097
226.5	15.275
227.0	16.771
227.5	18.378
228.0	19.937
228.5	21.284
229.0	22.351
229.5	22.942
230.0	23.055
230.5	22.756
231.0	22.263
231.5	21.771
232.0	21.413
232.5	21.240
233.0	21.225
233.5	21.356
234.0	21.628
234.5	21.949
235.0	22.233
235.5	22.411
236.0	22.495
236.5	22.541
237.0	22.595
237.5	22.650
238.0	22.720
238.5	22.831
239.0	23.029
239.5	23.342
240.0	23.829
240.5	24.684
241.0	25.507
241.5	26.318
242.0	27.156
242.5	27.614
243.0	27.578
243.5	27.433
244.0	27.159
244.5	26.506
245.0	25.754
245.5	25.065
246.0	24.147
246.5	23.293
247.0	22.636
247.5	21.781
248.0	20.957
248.5	20.469
249.0	20.041
249.5	19.456
250.0	18.908
250.5	18.378
251.0	17.857
251.5	17.452
252.0	17.141
252.5	16.854
253.0	16.555
253.5	16.291
254.0	16.062
254.5	15.842
255.0	15.595
255.5	15.412
256.0	15.278
256.5	15.174
257.0	15.071
257.5	15.019
258.0	14.955
258.5	14.894
259.0	14.832
259.5	14.800
260.0	14.754
260.5	14.766
261.0	14.760
261.5	14.770
262.0	14.750
262.5	14.761
263.0	14.767
263.5	14.801
264.0	14.812
264.5	14.816
265.0	14.812
265.5	14.859
266.0	14.867
266.5	14.911
267.0	14.869
267.5	14.849
268.0	14.821
268.5	14.813
269.0	14.772
269.5	14.742
270.0	14.694
270.5	14.688
271.0	14.638
271.5	14.592
272.0	14.494
272.5	14.393
273.0	14.328
273.5	14.237
274.0	14.151
274.5	14.063
275.0	13.950
275.5	13.864
276.0	13.778
276.5	13.696
277.0	13.608
277.5	13.540
278.0	13.518
278.5	13.453
279.0	13.413
279.5	13.382
280.0	13.347
280.5	13.305
281.0	13.242
281.5	13.168
282.0	13.093
282.5	13.011
283.0	12.942
283.5	12.842
284.0	12.760
284.5	12.659
285.0	12.541
285.5	12.398
286.0	12.232
286.5	12.072
287.0	11.913
287.5	11.738
288.0	11.567
288.5	11.390
289.0	11.210
289.5	11.021
290.0	10.847
290.5	10.677
291.0	10.517
291.5	10.377
292.0	10.237
292.5	10.094
293.0	9.981
293.5	9.871
294.0	9.783
294.5	9.713
295.0	9.666
295.5	9.635
296.0	9.613
296.5	9.594
297.0	9.563
297.5	9.532
298.0	9.514
298.5	9.483
299.0	9.460
299.5	9.438
300.0	9.420
300.5	9.416
301.0	9.406
301.5	9.401
302.0	9.399
302.5	9.391
303.0	9.388
303.5	9.395
304.0	9.389
304.5	9.388
305.0	9.392
305.5	9.396
306.0	9.394
306.5	9.397
307.0	9.394
307.5	9.381
308.0	9.378
308.5	9.372
309.0	9.348
309.5	9.335
310.0	9.331
310.5	9.334
311.0	9.341
311.5	9.352
312.0	9.370
312.5	9.389
313.0	9.394
313.5	9.390
314.0	9.385
314.5	9.375
315.0	9.364
315.5	9.373
316.0	9.374
316.5	9.379
317.0	9.391
317.5	9.404
318.0	9.407
318.5	9.419
319.0	9.432
319.5	9.437
320.0	9.442
320.5	9.455
321.0	9.455
321.5	9.461
322.0	9.462
322.5	9.473
323.0	9.487
323.5	9.512
324.0	9.521
324.5	9.537
325.0	9.553
325.5	9.552
326.0	9.547
326.5	9.539
327.0	9.531
327.5	9.514
328.0	9.507
328.5	9.522
329.0	9.512
329.5	9.520
330.0	9.512
330.5	9.496
331.0	9.474
331.5	9.458
332.0	9.462
332.5	9.445
333.0	9.434
333.5	9.439
334.0	9.438
334.5	9.429
335.0	9.405
335.5	9.395
336.0	9.382
336.5	9.371
337.0	9.358
337.5	9.326
338.0	9.287
338.5	9.277
339.0	9.259
339.5	9.231
340.0	9.204
340.5	9.176
341.0	9.150
341.5	9.122
342.0	9.098
342.5	9.074
343.0	9.048
343.5	9.027
344.0	8.996
344.5	8.972
345.0	8.935
345.5	8.891
346.0	8.856
346.5	8.802
347.0	8.757
347.5	8.712
348.0	8.677
348.5	8.635
349.0	8.605
349.5	8.578
350.0	8.551
350.5	8.513
351.0	8.472
351.5	8.412
352.0	8.358
352.5	8.300
353.0	8.252
353.5	8.197
354.0	8.149
354.5	8.107
355.0	8.058
355.5	8.006
356.0	7.953
356.5	7.895
357.0	7.846
357.5	7.797
358.0	7.748
358.5	7.700
359.0	7.649
359.5	7.599
360.0	7.544
360.5	7.482
361.0	7.414
361.5	7.344
362.0	7.283
362.5	7.216
363.0	7.150
363.5	7.092
364.0	7.021
364.5	6.956
365.0	6.896
365.5	6.827
366.0	6.752
366.5	6.674
367.0	6.598
367.5	6.515
368.0	6.443
368.5	6.374
369.0	6.292
369.5	6.221
370.0	6.150
370.5	6.076
371.0	5.998
371.5	5.915
372.0	5.841
372.5	5.763
373.0	5.685
373.5	5.606
374.0	5.525
374.5	5.451
375.0	5.374
375.5	5.294
376.0	5.213
376.5	5.131
377.0	5.057
377.5	4.979
378.0	4.901
378.5	4.826
379.0	4.755
379.5	4.686
380.0	4.611
380.5	4.536
381.0	4.462
381.5	4.384
382.0	4.297
382.5	4.208
383.0	4.118
383.5	4.034
384.0	3.962
384.5	3.894
385.0	3.825
385.5	3.759
386.0	3.697
386.5	3.628
387.0	3.562
387.5	3.498
388.0	3.427
388.5	3.365
389.0	3.304
389.5	3.242
390.0	3.177
390.5	3.110
391.0	3.048
391.5	2.979
392.0	2.920
392.5	2.862
393.0	2.805
393.5	2.753
394.0	2.702
394.5	2.650
395.0	2.599
395.5	2.552
396.0	2.505
396.5	2.455
397.0	2.411
397.5	2.366
398.0	2.322
398.5	2.279
399.0	2.235
399.5	2.188
400.0	2.146
400.5	2.109
401.0	2.072
401.5	2.036
402.0	2.003
402.5	1.965
403.0	1.930
403.5	1.894
404.0	1.858
404.5	1.827
405.0	1.800
405.5	1.774
406.0	1.747
406.5	1.721
407.0	1.695
407.5	1.668
408.0	1.647
408.5	1.626
409.0	1.604
409.5	1.587
410.0	1.571
410.5	1.553
411.0	1.538
411.5	1.519
412.0	1.502
412.5	1.487
413.0	1.472
413.5	1.457
414.0	1.440
414.5	1.427
415.0	1.415
415.5	1.406
416.0	1.396
416.5	1.381
417.0	1.367
417.5	1.351
418.0	1.335
418.5	1.323
419.0	1.313
419.5	1.305
420.0	1.300
420.5	1.295
421.0	1.292
421.5	1.289
422.0	1.286
422.5	1.278
423.0	1.271
423.5	1.267
424.0	1.263
424.5	1.256
425.0	1.250
425.5	1.243
426.0	1.240
426.5	1.236
427.0	1.234
427.5	1.229
428.0	1.220
428.5	1.212
429.0	1.204
429.5	1.198
430.0	1.197
430.5	1.197
431.0	1.202
431.5	1.207
432.0	1.213
432.5	1.216
433.0	1.215
433.5	1.211
434.0	1.207
434.5	1.206
435.0	1.202
435.5	1.202
436.0	1.203
436.5	1.202
437.0	1.199
437.5	1.195
438.0	1.187
438.5	1.180
439.0	1.178
439.5	1.178
440.0	1.175
440.5	1.182
441.0	1.184
441.5	1.187
442.0	1.188
442.5	1.187
443.0	1.183
443.5	1.180
444.0	1.180
444.5	1.177
445.0	1.175
445.5	1.178
446.0	1.179
446.5	1.183
447.0	1.187
447.5	1.193
448.0	1.199
448.5	1.201
449.0	1.203
449.5	1.199
450.0	1.192
450.5	1.188
451.0	1.182
451.5	1.179
452.0	1.176
452.5	1.175
453.0	1.174
453.5	1.170
454.0	1.172
454.5	1.170
455.0	1.172
455.5	1.176
456.0	1.178
456.5	1.181
457.0	1.183
457.5	1.182
458.0	1.181
458.5	1.178
459.0	1.179
459.5	1.177
460.0	1.179
460.5	1.180
461.0	1.180
461.5	1.179
462.0	1.177
462.5	1.174
463.0	1.171
463.5	1.168
464.0	1.162
464.5	1.159
465.0	1.157
465.5	1.156
466.0	1.155
466.5	1.155
467.0	1.156
467.5	1.159
468.0	1.162
468.5	1.162
469.0	1.157
469.5	1.155
470.0	1.153
470.5	1.151
471.0	1.150
471.5	1.148
472.0	1.150
472.5	1.152
473.0	1.151
473.5	1.147
474.0	1.140
474.5	1.134
475.0	1.129
475.5	1.129
476.0	1.128
476.5	1.126
477.0	1.129
477.5	1.133
478.0	1.137
478.5	1.140
479.0	1.139
479.5	1.137
480.0	1.134
480.5	1.131
481.0	1.129
481.5	1.126
482.0	1.127
482.5	1.126
483.0	1.129
483.5	1.128
484.0	1.126
484.5	1.123
485.0	1.119
485.5	1.116
486.0	1.115
486.5	1.114
487.0	1.118
487.5	1.121
488.0	1.122
488.5	1.123
489.0	1.122
489.5	1.119
490.0	1.115
490.5	1.109
491.0	1.103
491.5	1.100
492.0	1.103
492.5	1.103
493.0	1.097
493.5	1.092
494.0	1.088
494.5	1.086
495.0	1.081
495.5	1.075
496.0	1.072
496.5	1.070
497.0	1.071
497.5	1.066
498.0	1.066
498.5	1.067
499.0	1.073
499.5	1.078
500.0	1.077
500.5	1.076
501.0	1.077
501.5	1.077
502.0	1.076
502.5	1.071
503.0	1.068
503.5	1.058
504.0	1.054
504.5	1.047
505.0	1.044
505.5	1.039
506.0	1.040
506.5	1.042
507.0	1.045
507.5	1.041
508.0	1.038
508.5	1.032
509.0	1.029
509.5	1.024
510.0	1.023
510.5	1.020
511.0	1.018
511.5	1.015
512.0	1.014
512.5	1.009
513.0	1.002
513.5	0.999
514.0	0.998
514.5	0.996
515.0	0.993
515.5	0.987
516.0	0.984
516.5	0.983
517.0	0.984
517.5	0.981
518.0	0.978
518.5	0.979
519.0	0.979
519.5	0.980
520.0	0.972
520.5	0.967
521.0	0.971
521.5	0.973
522.0	0.973
522.5	0.968
523.0	0.964
523.5	0.954
524.0	0.946
524.5	0.941
525.0	0.934
525.5	0.934
526.0	0.935
526.5	0.932
527.0	0.928
527.5	0.928
528.0	0.927
528.5	0.922
529.0	0.922
529.5	0.923
530.0	0.928
530.5	0.928
531.0	0.924
531.5	0.918
532.0	0.910
532.5	0.905
533.0	0.898
533.5	0.890
534.0	0.884
534.5	0.881
535.0	0.880
535.5	0.876
536.0	0.876
536.5	0.875
537.0	0.868
537.5	0.861
538.0	0.852
538.5	0.844
539.0	0.837
539.5	0.833
540.0	0.833
540.5	0.838
541.0	0.839
541.5	0.838
542.0	0.837
542.5	0.835
543.0	0.826
543.5	0.816
544.0	0.806
544.5	0.798
545.0	0.789
545.5	0.786
546.0	0.782
546.5	0.778
547.0	0.778
547.5	0.780
548.0	0.781
548.5	0.781
549.0	0.780
549.5	0.776
550.0	0.769
550.5	0.767
551.0	0.765
551.5	0.760
552.0	0.752
552.5	0.748
553.0	0.746
553.5	0.739
554.0	0.735
554.5	0.724
555.0	0.719
555.5	0.720
556.0	0.719
556.5	0.714
557.0	0.705
557.5	0.695
558.0	0.690
558.5	0.685
559.0	0.681
559.5	0.675
560.0	0.676
560.5	0.682
561.0	0.688
561.5	0.689
562.0	0.693
562.5	0.687
563.0	0.683
563.5	0.675
564.0	0.661
564.5	0.649
565.0	0.639
565.5	0.634
566.0	0.634
566.5	0.636
567.0	0.639
567.5	0.641
568.0	0.643
568.5	0.641
569.0	0.633
569.5	0.629
570.0	0.621
570.5	0.613
571.0	0.605
571.5	0.599
572.0	0.594
572.5	0.592
573.0	0.588
573.5	0.580
574.0	0.573
574.5	0.570
575.0	0.566
575.5	0.568
576.0	0.567
576.5	0.567
577.0	0.571
577.5	0.569
578.0	0.562
578.5	0.557
579.0	0.551
579.5	0.547
580.0	0.546
580.5	0.543
581.0	0.533
581.5	0.527
582.0	0.525
582.5	0.513
583.0	0.504
583.5	0.496
584.0	0.489
584.5	0.488
585.0	0.491
585.5	0.492
586.0	0.490
586.5	0.488
587.0	0.485
587.5	0.479
588.0	0.474
588.5	0.467
589.0	0.468
589.5	0.465
590.0	0.463
590.5	0.461
591.0	0.461
591.5	0.454
592.0	0.453
592.5	0.452
593.0	0.450
593.5	0.449
594.0	0.449
594.5	0.442
595.0	0.436
595.5	0.432
596.0	0.430
596.5	0.426
597.0	0.426
597.5	0.430
598.0	0.431
598.5	0.430
599.0	0.429
599.5	0.427
600.0	0.424
600.5	0.418
601.0	0.411
601.5	0.403
602.0	0.393
602.5	0.389
603.0	0.384
603.5	0.377
604.0	0.374
604.5	0.376
605.0	0.380
605.5	0.386
606.0	0.385
606.5	0.387
607.0	0.387
607.5	0.389
608.0	0.390
608.5	0.389
609.0	0.386
609.5	0.382
610.0	0.379
610.5	0.376
611.0	0.369
611.5	0.360
612.0	0.356
612.5	0.347
613.0	0.339
613.5	0.329
614.0	0.320
614.5	0.310
615.0	0.306
615.5	0.310
616.0	0.320
616.5	0.329
617.0	0.338
617.5	0.337
618.0	0.339
618.5	0.331
619.0	0.325
619.5	0.312
620.0	0.304
620.5	0.304
621.0	0.303
621.5	0.308
622.0	0.311
622.5	0.307
623.0	0.306
623.5	0.301
624.0	0.295
624.5	0.291
625.0	0.288
625.5	0.286
626.0	0.283
626.5	0.288
627.0	0.295
627.5	0.294
628.0	0.290
628.5	0.284
629.0	0.275
629.5	0.269
630.0	0.258
630.5	0.251
631.0	0.248
631.5	0.245
632.0	0.248
632.5	0.251
633.0	0.249
633.5	0.240
634.0	0.235
634.5	0.233
635.0	0.231
635.5	0.233
636.0	0.233
636.5	0.234
637.0	0.241
637.5	0.247
638.0	0.248
638.5	0.240
639.0	0.233
639.5	0.234
640.0	0.233
640.5	0.230
641.0	0.223
641.5	0.219
642.0	0.215
642.5	0.212
643.0	0.205
643.5	0.199
644.0	0.193
644.5	0.201
645.0	0.205
645.5	0.207
646.0	0.202
646.5	0.207
647.0	0.217
647.5	0.222
648.0	0.221
648.5	0.221
649.0	0.214
649.5	0.210
650.0	0.200
650.5	0.195
651.0	0.189
651.5	0.195
652.0	0.201
652.5	0.201
653.0	0.197
653.5	0.190
654.0	0.180
654.5	0.174
655.0	0.167
655.5	0.166
656.0	0.167
656.5	0.172
657.0	0.177
657.5	0.178
658.0	0.182
658.5	0.181
659.0	0.185
659.5	0.188
660.0	0.184
660.5	0.179
661.0	0.172
661.5	0.171
662.0	0.173
662.5	0.174
663.0	0.174
663.5	0.176
664.0	0.182
664.5	0.182
665.0	0.183
665.5	0.181
666.0	0.183
666.5	0.184
667.0	0.178
667.5	0.170
668.0	0.160
668.5	0.159
669.0	0.158
669.5	0.157
670.0	0.163
670.5	0.166
671.0	0.170
671.5	0.174
672.0	0.171
672.5	0.166
673.0	0.157
673.5	0.150
674.0	0.144
674.5	0.138
675.0	0.127
675.5	0.119
676.0	0.114
676.5	0.123
677.0	0.132
677.5	0.133
678.0	0.134
678.5	0.141
679.0	0.146
679.5	0.138
680.0	0.130
680.5	0.125
681.0	0.127
681.5	0.136
682.0	0.140
682.5	0.137
683.0	0.145
683.5	0.143
684.0	0.135
684.5	0.120
685.0	0.120
685.5	0.123
686.0	0.128
686.5	0.128
687.0	0.132
687.5	0.131
688.0	0.137
688.5	0.131
689.0	0.125
689.5	0.119
690.0	0.123
690.5	0.122
691.0	0.122
691.5	0.123
692.0	0.132
692.5	0.133
693.0	0.141
693.5	0.143
694.0	0.142
694.5	0.137
695.0	0.129
695.5	0.114
696.0	0.105
696.5	0.102
697.0	0.110
697.5	0.116
698.0	0.130
698.5	0.141
699.0	0.147
699.5	0.152
700.0	0.152
700.5	0.146
701.0	0.137
701.5	0.131
702.0	0.132
702.5	0.129
703.0	0.120
703.5	0.115
704.0	0.113
704.5	0.116
705.0	0.115
705.5	0.110
706.0	0.106
706.5	0.104
707.0	0.113
707.5	0.115
708.0	0.111
708.5	0.115
709.0	0.123
709.5	0.125
710.0	0.114
710.5	0.101
711.0	0.092
711.5	0.086
712.0	0.086
712.5	0.078
713.0	0.068
713.5	0.066
714.0	0.068
714.5	0.067
715.0	0.070
715.5	0.073
716.0	0.085
716.5	0.101
717.0	0.115
717.5	0.119
718.0	0.120
718.5	0.115
719.0	0.108
719.5	0.096
720.0	0.088
720.5	0.080
721.0	0.073
721.5	0.067
722.0	0.067
722.5	0.063
723.0	0.062
723.5	0.060
724.0	0.056
724.5	0.057
725.0	0.067
725.5	0.071
726.0	0.066
726.5	0.063
727.0	0.059
727.5	0.057
728.0	0.058
728.5	0.056
729.0	0.055
729.5	0.062
730.0	0.077
730.5	0.076
731.0	0.078
731.5	0.083
732.0	0.091
732.5	0.097
733.0	0.095
733.5	0.085
734.0	0.081
734.5	0.080
735.0	0.087
735.5	0.082
736.0	0.078
736.5	0.078
737.0	0.081
737.5	0.069
738.0	0.060
738.5	0.058
739.0	0.068
739.5	0.081
740.0	0.097
740.5	0.106
741.0	0.109
741.5	0.113
742.0	0.106
742.5	0.092
743.0	0.082
743.5	0.079
744.0	0.080
744.5	0.083
745.0	0.085
745.5	0.088
746.0	0.095
746.5	0.103
747.0	0.098
747.5	0.088
748.0	0.080
748.5	0.071
749.0	0.060
749.5	0.052
750.0	0.046
750.5	0.051
751.0	0.068
751.5	0.081
752.0	0.086
752.5	0.093
753.0	0.108
753.5	0.109
754.0	0.100
754.5	0.100
755.0	0.095
755.5	0.084
756.0	0.074
756.5	0.063
757.0	0.063
757.5	0.069
758.0	0.079
758.5	0.081
759.0	0.085
759.5	0.090
760.0	0.090
760.5	0.085
761.0	0.082
761.5	0.089
762.0	0.092
762.5	0.089
763.0	0.088
763.5	0.086
764.0	0.076
764.5	0.067
765.0	0.062
765.5	0.061
766.0	0.063
766.5	0.070
767.0	0.072
767.5	0.069
768.0	0.062
768.5	0.056
769.0	0.047
769.5	0.046
770.0	0.047
770.5	0.049
771.0	0.052
771.5	0.051
772.0	0.048
772.5	0.036
773.0	0.022
773.5	0.018
774.0	0.023
774.5	0.030
775.0	0.038
775.5	0.039
776.0	0.046
776.5	0.049
777.0	0.043
777.5	0.034
778.0	0.040
778.5	0.049
779.0	0.060
779.5	0.063
780.0	0.060
780.5	0.050
781.0	0.050
781.5	0.038
782.0	0.023
782.5	0.023
783.0	0.038
783.5	0.047
784.0	0.062
784.5	0.068
785.0	0.069
785.5	0.061
786.0	0.057
786.5	0.054
787.0	0.056
787.5	0.063
788.0	0.062
788.5	0.068
789.0	0.083
789.5	0.083
790.0	0.073
790.5	0.056
791.0	0.049
791.5	0.050
792.0	0.047
792.5	0.044
793.0	0.050
793.5	0.066
794.0	0.080
794.5	0.074
795.0	0.067
795.5	0.061
796.0	0.068
796.5	0.060
797.0	0.059
797.5	0.063
798.0	0.068
798.5	0.063
799.0	0.060
799.5	0.053
800.0	0.044
800.5	0.039
801.0	0.030
801.5	0.010
802.0	0.006
802.5	0.000
803.0	-0.005
803.5	0.003
804.0	0.023
804.5	0.039
805.0	0.046
805.5	0.055
806.0	0.056
806.5	0.048
807.0	0.048
807.5	0.043
808.0	0.044
808.5	0.053
809.0	0.062
809.5	0.065
810.0	0.056
810.5	0.053
811.0	0.047
811.5	0.033
812.0	0.031
812.5	0.023
813.0	0.020
813.5	0.022
814.0	0.029
814.5	0.035
815.0	0.035
815.5	0.032
816.0	0.017
816.5	0.009
817.0	0.008
817.5	0.005
818.0	0.016
818.5	0.030
819.0	0.043
819.5	0.051
820.0	0.054
820.5	0.044
821.0	0.029
821.5	0.025
822.0	0.021
822.5	0.023
823.0	0.034
823.5	0.030
824.0	0.024
824.5	0.023
825.0	0.027
825.5	0.031
826.0	0.035
826.5	0.045
827.0	0.059
827.5	0.080
828.0	0.094
828.5	0.088
829.0	0.067
829.5	0.044
830.0	0.011
830.5	-0.025
831.0	-0.052
831.5	-0.067
832.0	-0.066
832.5	-0.043
833.0	-0.022
833.5	-0.008
834.0	0.010
834.5	0.023
835.0	0.026
835.5	0.027
836.0	0.030
836.5	0.014
837.0	-0.002
837.5	0.001
838.0	-0.006
838.5	-0.007
839.0	0.005
839.5	0.010
840.0	0.026
840.5	0.031
841.0	0.032
841.5	0.013
842.0	0.008
842.5	0.010
843.0	0.007
843.5	0.004
844.0	0.010
844.5	0.014
845.0	0.024
845.5	0.035
846.0	0.040
846.5	0.035
847.0	0.034
847.5	0.024
848.0	0.024
848.5	0.011
849.0	0.012
849.5	0.015
850.0	0.012


Sample 6
4/21/2023 2:18 PM
Wavelength (nm)	10mm Absorbance
//WLCalib: Shift 	0.02000	
//WLCalib: 261S 	-0.34000	
//WLCalib: 362S 	-0.41000	
//WLCalib: 484S 	-0.30000	
//WLCalib: 529S 	-0.49000	
//WLCalib: 823S 	-0.33000	
//QSpecEnd: 
190.0	3.116
190.5	2.928
191.0	3.086
191.5	3.323
192.0	3.280
192.5	3.141
193.0	3.027
193.5	3.126
194.0	3.249
194.5	3.081
195.0	3.205
195.5	3.268
196.0	3.355
196.5	3.307
197.0	3.127
197.5	3.020
198.0	2.784
198.5	2.651
199.0	2.469
199.5	2.345
200.0	2.522
200.5	2.265
201.0	2.145
201.5	2.233
202.0	2.076
202.5	1.966
203.0	1.864
203.5	1.633
204.0	1.613
204.5	1.499
205.0	1.361
205.5	0.905
206.0	0.817
206.5	0.514
207.0	0.053
207.5	-0.109
208.0	-0.168
208.5	-0.129
209.0	0.084
209.5	-0.047
210.0	0.051
210.5	0.040
211.0	0.243
211.5	0.109
212.0	-0.171
212.5	-0.113
213.0	0.389
213.5	0.666
214.0	0.907
214.5	1.295
215.0	1.955
215.5	2.527
216.0	2.951
216.5	3.159
217.0	3.502
217.5	3.984
218.0	4.335
218.5	4.614
219.0	5.085
219.5	5.713
220.0	6.442
220.5	7.152
221.0	7.758
221.5	8.465
222.0	9.100
222.5	9.461
223.0	9.984
223.5	10.489
224.0	11.021
224.5	11.612
225.0	12.227
225.5	12.935
226.0	13.876
226.5	15.093
227.0	16.565
227.5	18.132
228.0	19.724
228.5	21.071
229.0	22.102
229.5	22.695
230.0	22.803
230.5	22.503
231.0	22.017
231.5	21.532
232.0	21.187
232.5	21.028
233.0	21.008
233.5	21.147
234.0	21.413
234.5	21.739
235.0	22.019
235.5	22.203
236.0	22.295
236.5	22.354
237.0	22.402
237.5	22.460
238.0	22.522
238.5	22.641
239.0	22.841
239.5	23.191
240.0	23.670
240.5	24.347
241.0	25.312
241.5	26.307
242.0	26.966
242.5	27.455
243.0	27.682
243.5	27.322
244.0	26.542
244.5	25.631
245.0	24.631
245.5	23.821
246.0	23.285
246.5	22.837
247.0	22.300
247.5	21.994
248.0	21.649
248.5	21.029
249.0	20.402
249.5	19.790
250.0	19.123
250.5	18.523
251.0	18.035
251.5	17.636
252.0	17.234
252.5	16.974
253.0	16.745
253.5	16.511
254.0	16.393
254.5	16.192
255.0	16.014
255.5	15.858
256.0	15.730
256.5	15.602
257.0	15.481
257.5	15.374
258.0	15.284
258.5	15.200
259.0	15.207
259.5	15.166
260.0	15.136
260.5	15.122
261.0	15.090
261.5	15.075
262.0	15.065
262.5	15.015
263.0	15.012
263.5	14.998
264.0	15.001
264.5	15.030
265.0	15.028
265.5	15.039
266.0	15.061
266.5	15.079
267.0	15.095
267.5	15.080
268.0	15.086
268.5	15.095
269.0	15.069
269.5	15.073
270.0	15.018
270.5	14.952
271.0	14.891
271.5	14.796
272.0	14.724
272.5	14.653
273.0	14.570
273.5	14.499
274.0	14.401
274.5	14.294
275.0	14.188
275.5	14.089
276.0	14.034
276.5	13.949
277.0	13.882
277.5	13.841
278.0	13.806
278.5	13.760
279.0	13.717
279.5	13.659
280.0	13.621
280.5	13.571
281.0	13.505
281.5	13.433
282.0	13.377
282.5	13.316
283.0	13.246
283.5	13.163
284.0	13.059
284.5	12.936
285.0	12.783
285.5	12.609
286.0	12.457
286.5	12.307
287.0	12.148
287.5	11.981
288.0	11.808
288.5	11.644
289.0	11.440
289.5	11.247
290.0	11.068
290.5	10.906
291.0	10.760
291.5	10.604
292.0	10.457
292.5	10.317
293.0	10.195
293.5	10.102
294.0	10.009
294.5	9.950
295.0	9.907
295.5	9.865
296.0	9.822
296.5	9.783
297.0	9.740
297.5	9.700
298.0	9.684
298.5	9.672
299.0	9.657
299.5	9.651
300.0	9.635
300.5	9.616
301.0	9.603
301.5	9.592
302.0	9.573
302.5	9.574
303.0	9.589
303.5	9.589
304.0	9.587
304.5	9.586
305.0	9.579
305.5	9.571
306.0	9.567
306.5	9.563
307.0	9.547
307.5	9.553
308.0	9.547
308.5	9.544
309.0	9.550
309.5	9.546
310.0	9.546
310.5	9.548
311.0	9.548
311.5	9.556
312.0	9.559
312.5	9.561
313.0	9.551
313.5	9.551
314.0	9.555
314.5	9.549
315.0	9.549
315.5	9.543
316.0	9.539
316.5	9.565
317.0	9.584
317.5	9.595
318.0	9.598
318.5	9.603
319.0	9.610
319.5	9.610
320.0	9.621
320.5	9.624
321.0	9.634
321.5	9.652
322.0	9.667
322.5	9.674
323.0	9.681
323.5	9.699
324.0	9.708
324.5	9.716
325.0	9.717
325.5	9.712
326.0	9.704
326.5	9.691
327.0	9.671
327.5	9.650
328.0	9.641
328.5	9.644
329.0	9.642
329.5	9.643
330.0	9.630
330.5	9.626
331.0	9.621
331.5	9.605
332.0	9.583
332.5	9.560
333.0	9.555
333.5	9.562
334.0	9.564
334.5	9.573
335.0	9.565
335.5	9.558
336.0	9.534
336.5	9.509
337.0	9.475
337.5	9.449
338.0	9.439
338.5	9.439
339.0	9.425
339.5	9.418
340.0	9.399
340.5	9.367
341.0	9.330
341.5	9.299
342.0	9.262
342.5	9.226
343.0	9.193
343.5	9.179
344.0	9.144
344.5	9.117
345.0	9.087
345.5	9.061
346.0	9.028
346.5	8.977
347.0	8.934
347.5	8.884
348.0	8.840
348.5	8.804
349.0	8.761
349.5	8.732
350.0	8.700
350.5	8.677
351.0	8.636
351.5	8.575
352.0	8.527
352.5	8.476
353.0	8.431
353.5	8.382
354.0	8.328
354.5	8.277
355.0	8.225
355.5	8.180
356.0	8.126
356.5	8.057
357.0	8.003
357.5	7.958
358.0	7.914
358.5	7.858
359.0	7.799
359.5	7.737
360.0	7.682
360.5	7.623
361.0	7.557
361.5	7.483
362.0	7.418
362.5	7.358
363.0	7.295
363.5	7.231
364.0	7.162
364.5	7.099
365.0	7.032
365.5	6.959
366.0	6.879
366.5	6.799
367.0	6.728
367.5	6.657
368.0	6.588
368.5	6.518
369.0	6.440
369.5	6.366
370.0	6.283
370.5	6.201
371.0	6.119
371.5	6.045
372.0	5.973
372.5	5.898
373.0	5.822
373.5	5.743
374.0	5.658
374.5	5.573
375.0	5.482
375.5	5.399
376.0	5.324
376.5	5.247
377.0	5.174
377.5	5.101
378.0	5.021
378.5	4.944
379.0	4.862
379.5	4.787
380.0	4.708
380.5	4.631
381.0	4.562
381.5	4.484
382.0	4.406
382.5	4.325
383.0	4.240
383.5	4.157
384.0	4.075
384.5	4.010
385.0	3.938
385.5	3.863
386.0	3.796
386.5	3.724
387.0	3.652
387.5	3.578
388.0	3.508
388.5	3.440
389.0	3.376
389.5	3.315
390.0	3.248
390.5	3.181
391.0	3.119
391.5	3.055
392.0	2.993
392.5	2.938
393.0	2.880
393.5	2.826
394.0	2.773
394.5	2.719
395.0	2.665
395.5	2.615
396.0	2.566
396.5	2.517
397.0	2.472
397.5	2.433
398.0	2.388
398.5	2.345
399.0	2.301
399.5	2.256
400.0	2.215
400.5	2.174
401.0	2.134
401.5	2.094
402.0	2.053
402.5	2.015
403.0	1.976
403.5	1.939
404.0	1.906
404.5	1.879
405.0	1.855
405.5	1.831
406.0	1.806
406.5	1.779
407.0	1.751
407.5	1.726
408.0	1.705
408.5	1.682
409.0	1.662
409.5	1.643
410.0	1.625
410.5	1.606
411.0	1.587
411.5	1.566
412.0	1.546
412.5	1.530
413.0	1.518
413.5	1.503
414.0	1.488
414.5	1.476
415.0	1.462
415.5	1.449
416.0	1.438
416.5	1.422
417.0	1.409
417.5	1.392
418.0	1.378
418.5	1.367
419.0	1.359
419.5	1.354
420.0	1.349
420.5	1.343
421.0	1.338
421.5	1.334
422.0	1.331
422.5	1.323
423.0	1.315
423.5	1.310
424.0	1.308
424.5	1.304
425.0	1.300
425.5	1.291
426.0	1.286
426.5	1.284
427.0	1.281
427.5	1.275
428.0	1.266
428.5	1.259
429.0	1.253
429.5	1.247
430.0	1.244
430.5	1.242
431.0	1.244
431.5	1.249
432.0	1.252
432.5	1.253
433.0	1.251
433.5	1.249
434.0	1.248
434.5	1.250
435.0	1.248
435.5	1.248
436.0	1.246
436.5	1.247
437.0	1.243
437.5	1.239
438.0	1.231
438.5	1.225
439.0	1.228
439.5	1.231
440.0	1.230
440.5	1.234
441.0	1.233
441.5	1.231
442.0	1.229
442.5	1.228
443.0	1.221
443.5	1.218
444.0	1.222
444.5	1.222
445.0	1.225
445.5	1.230
446.0	1.230
446.5	1.230
447.0	1.235
447.5	1.240
448.0	1.242
448.5	1.243
449.0	1.245
449.5	1.243
450.0	1.241
450.5	1.238
451.0	1.230
451.5	1.226
452.0	1.222
452.5	1.217
453.0	1.209
453.5	1.206
454.0	1.206
454.5	1.207
455.0	1.209
455.5	1.212
456.0	1.217
456.5	1.222
457.0	1.225
457.5	1.224
458.0	1.221
458.5	1.221
459.0	1.225
459.5	1.226
460.0	1.228
460.5	1.228
461.0	1.230
461.5	1.230
462.0	1.228
462.5	1.226
463.0	1.221
463.5	1.218
464.0	1.215
464.5	1.211
465.0	1.212
465.5	1.212
466.0	1.212
466.5	1.211
467.0	1.210
467.5	1.211
468.0	1.210
468.5	1.210
469.0	1.203
469.5	1.201
470.0	1.202
470.5	1.202
471.0	1.201
471.5	1.201
472.0	1.203
472.5	1.206
473.0	1.204
473.5	1.201
474.0	1.198
474.5	1.191
475.0	1.186
475.5	1.184
476.0	1.183
476.5	1.184
477.0	1.189
477.5	1.194
478.0	1.198
478.5	1.203
479.0	1.203
479.5	1.198
480.0	1.191
480.5	1.185
481.0	1.181
481.5	1.177
482.0	1.177
482.5	1.176
483.0	1.179
483.5	1.181
484.0	1.181
484.5	1.179
485.0	1.175
485.5	1.171
486.0	1.169
486.5	1.167
487.0	1.169
487.5	1.172
488.0	1.175
488.5	1.178
489.0	1.177
489.5	1.176
490.0	1.172
490.5	1.167
491.0	1.164
491.5	1.161
492.0	1.164
492.5	1.165
493.0	1.164
493.5	1.161
494.0	1.157
494.5	1.153
495.0	1.144
495.5	1.140
496.0	1.136
496.5	1.131
497.0	1.130
497.5	1.128
498.0	1.129
498.5	1.133
499.0	1.137
499.5	1.138
500.0	1.134
500.5	1.133
501.0	1.130
501.5	1.130
502.0	1.128
502.5	1.126
503.0	1.125
503.5	1.127
504.0	1.126
504.5	1.121
505.0	1.118
505.5	1.116
506.0	1.112
506.5	1.111
507.0	1.111
507.5	1.107
508.0	1.100
508.5	1.099
509.0	1.096
509.5	1.093
510.0	1.093
510.5	1.091
511.0	1.085
511.5	1.077
512.0	1.072
512.5	1.067
513.0	1.064
513.5	1.068
514.0	1.072
514.5	1.076
515.0	1.075
515.5	1.071
516.0	1.066
516.5	1.060
517.0	1.054
517.5	1.052
518.0	1.053
518.5	1.055
519.0	1.057
519.5	1.060
520.0	1.054
520.5	1.047
521.0	1.045
521.5	1.043
522.0	1.039
522.5	1.033
523.0	1.028
523.5	1.023
524.0	1.019
524.5	1.018
525.0	1.015
525.5	1.015
526.0	1.015
526.5	1.013
527.0	1.009
527.5	1.005
528.0	1.001
528.5	0.998
529.0	0.995
529.5	0.997
530.0	1.001
530.5	1.002
531.0	0.998
531.5	0.994
532.0	0.989
532.5	0.985
533.0	0.979
533.5	0.972
534.0	0.962
534.5	0.957
535.0	0.956
535.5	0.954
536.0	0.953
536.5	0.952
537.0	0.951
537.5	0.947
538.0	0.945
538.5	0.940
539.0	0.934
539.5	0.929
540.0	0.926
540.5	0.925
541.0	0.924
541.5	0.920
542.0	0.916
542.5	0.912
543.0	0.905
543.5	0.896
544.0	0.891
544.5	0.885
545.0	0.881
545.5	0.880
546.0	0.879
546.5	0.878
547.0	0.873
547.5	0.871
548.0	0.866
548.5	0.861
549.0	0.859
549.5	0.855
550.0	0.853
550.5	0.853
551.0	0.853
551.5	0.851
552.0	0.844
552.5	0.843
553.0	0.841
553.5	0.838
554.0	0.834
554.5	0.826
555.0	0.821
555.5	0.817
556.0	0.813
556.5	0.807
557.0	0.794
557.5	0.783
558.0	0.777
558.5	0.770
559.0	0.766
559.5	0.764
560.0	0.769
560.5	0.772
561.0	0.777
561.5	0.779
562.0	0.777
562.5	0.771
563.0	0.768
563.5	0.760
564.0	0.755
564.5	0.750
565.0	0.746
565.5	0.741
566.0	0.735
566.5	0.730
567.0	0.725
567.5	0.722
568.0	0.720
568.5	0.716
569.0	0.713
569.5	0.712
570.0	0.707
570.5	0.703
571.0	0.695
571.5	0.686
572.0	0.679
572.5	0.677
573.0	0.671
573.5	0.661
574.0	0.655
574.5	0.652
575.0	0.653
575.5	0.656
576.0	0.657
576.5	0.657
577.0	0.660
577.5	0.660
578.0	0.653
578.5	0.647
579.0	0.642
579.5	0.639
580.0	0.637
580.5	0.632
581.0	0.622
581.5	0.617
582.0	0.612
582.5	0.600
583.0	0.591
583.5	0.581
584.0	0.576
584.5	0.575
585.0	0.578
585.5	0.576
586.0	0.579
586.5	0.585
587.0	0.583
587.5	0.576
588.0	0.571
588.5	0.561
589.0	0.557
589.5	0.551
590.0	0.550
590.5	0.544
591.0	0.544
591.5	0.542
592.0	0.539
592.5	0.532
593.0	0.530
593.5	0.532
594.0	0.529
594.5	0.527
595.0	0.525
595.5	0.519
596.0	0.519
596.5	0.514
597.0	0.511
597.5	0.508
598.0	0.505
598.5	0.503
599.0	0.499
599.5	0.499
600.0	0.494
600.5	0.486
601.0	0.482
601.5	0.478
602.0	0.472
602.5	0.471
603.0	0.467
603.5	0.464
604.0	0.461
604.5	0.460
605.0	0.458
605.5	0.459
606.0	0.455
606.5	0.456
607.0	0.453
607.5	0.456
608.0	0.456
608.5	0.456
609.0	0.452
609.5	0.451
610.0	0.449
610.5	0.448
611.0	0.441
611.5	0.433
612.0	0.427
612.5	0.420
613.0	0.411
613.5	0.402
614.0	0.396
614.5	0.391
615.0	0.385
615.5	0.390
616.0	0.394
616.5	0.400
617.0	0.405
617.5	0.401
618.0	0.396
618.5	0.387
619.0	0.381
619.5	0.370
620.0	0.362
620.5	0.362
621.0	0.362
621.5	0.370
622.0	0.373
622.5	0.369
623.0	0.367
623.5	0.365
624.0	0.358
624.5	0.352
625.0	0.342
625.5	0.337
626.0	0.335
626.5	0.335
627.0	0.339
627.5	0.340
628.0	0.341
628.5	0.342
629.0	0.335
629.5	0.333
630.0	0.324
630.5	0.318
631.0	0.316
631.5	0.309
632.0	0.309
632.5	0.311
633.0	0.311
633.5	0.303
634.0	0.298
634.5	0.299
635.0	0.299
635.5	0.306
636.0	0.311
636.5	0.311
637.0	0.313
637.5	0.315
638.0	0.310
638.5	0.299
639.0	0.291
639.5	0.288
640.0	0.287
640.5	0.289
641.0	0.283
641.5	0.276
642.0	0.271
642.5	0.266
643.0	0.258
643.5	0.257
644.0	0.251
644.5	0.255
645.0	0.262
645.5	0.268
646.0	0.265
646.5	0.262
647.0	0.264
647.5	0.263
648.0	0.258
648.5	0.252
649.0	0.240
649.5	0.235
650.0	0.232
650.5	0.231
651.0	0.235
651.5	0.242
652.0	0.247
652.5	0.248
653.0	0.244
653.5	0.235
654.0	0.223
654.5	0.217
655.0	0.211
655.5	0.210
656.0	0.217
656.5	0.219
657.0	0.224
657.5	0.227
658.0	0.232
658.5	0.229
659.0	0.229
659.5	0.226
660.0	0.217
660.5	0.210
661.0	0.205
661.5	0.205
662.0	0.213
662.5	0.216
663.0	0.219
663.5	0.219
664.0	0.219
664.5	0.212
665.0	0.210
665.5	0.211
666.0	0.213
666.5	0.220
667.0	0.219
667.5	0.211
668.0	0.209
668.5	0.208
669.0	0.206
669.5	0.203
670.0	0.204
670.5	0.204
671.0	0.207
671.5	0.214
672.0	0.214
672.5	0.209
673.0	0.204
673.5	0.194
674.0	0.188
674.5	0.181
675.0	0.168
675.5	0.163
676.0	0.158
676.5	0.163
677.0	0.170
677.5	0.169
678.0	0.165
678.5	0.170
679.0	0.173
679.5	0.169
680.0	0.167
680.5	0.167
681.0	0.164
681.5	0.169
682.0	0.169
682.5	0.163
683.0	0.164
683.5	0.163
684.0	0.154
684.5	0.140
685.0	0.142
685.5	0.144
686.0	0.147
686.5	0.149
687.0	0.155
687.5	0.158
688.0	0.166
688.5	0.167
689.0	0.161
689.5	0.151
690.0	0.153
690.5	0.152
691.0	0.152
691.5	0.152
692.0	0.156
692.5	0.161
693.0	0.173
693.5	0.178
694.0	0.176
694.5	0.167
695.0	0.160
695.5	0.148
696.0	0.138
696.5	0.131
697.0	0.132
697.5	0.143
698.0	0.159
698.5	0.170
699.0	0.179
699.5	0.177
700.0	0.177
700.5	0.174
701.0	0.165
701.5	0.158
702.0	0.158
702.5	0.160
703.0	0.154
703.5	0.150
704.0	0.144
704.5	0.137
705.0	0.129
705.5	0.124
706.0	0.116
706.5	0.111
707.0	0.119
707.5	0.127
708.0	0.126
708.5	0.133
709.0	0.137
709.5	0.141
710.0	0.131
710.5	0.125
711.0	0.119
711.5	0.114
712.0	0.116
712.5	0.113
713.0	0.100
713.5	0.096
714.0	0.094
714.5	0.091
715.0	0.092
715.5	0.097
716.0	0.109
716.5	0.128
717.0	0.143
717.5	0.151
718.0	0.150
718.5	0.143
719.0	0.129
719.5	0.110
720.0	0.099
720.5	0.086
721.0	0.077
721.5	0.074
722.0	0.072
722.5	0.069
723.0	0.068
723.5	0.068
724.0	0.066
724.5	0.067
725.0	0.082
725.5	0.091
726.0	0.094
726.5	0.095
727.0	0.095
727.5	0.096
728.0	0.096
728.5	0.095
729.0	0.090
729.5	0.092
730.0	0.104
730.5	0.102
731.0	0.102
731.5	0.111
732.0	0.124
732.5	0.132
733.0	0.127
733.5	0.121
734.0	0.112
734.5	0.108
735.0	0.110
735.5	0.100
736.0	0.099
736.5	0.099
737.0	0.100
737.5	0.091
738.0	0.082
738.5	0.078
739.0	0.081
739.5	0.093
740.0	0.105
740.5	0.109
741.0	0.113
741.5	0.112
742.0	0.108
742.5	0.095
743.0	0.088
743.5	0.080
744.0	0.084
744.5	0.089
745.0	0.090
745.5	0.091
746.0	0.098
746.5	0.103
747.0	0.100
747.5	0.088
748.0	0.085
748.5	0.079
749.0	0.080
749.5	0.080
750.0	0.079
750.5	0.088
751.0	0.104
751.5	0.117
752.0	0.116
752.5	0.119
753.0	0.125
753.5	0.123
754.0	0.114
754.5	0.106
755.0	0.100
755.5	0.090
756.0	0.083
756.5	0.077
757.0	0.077
757.5	0.090
758.0	0.097
758.5	0.100
759.0	0.100
759.5	0.099
760.0	0.096
760.5	0.081
761.0	0.075
761.5	0.077
762.0	0.087
762.5	0.093
763.0	0.093
763.5	0.092
764.0	0.087
764.5	0.081
765.0	0.072
765.5	0.064
766.0	0.061
766.5	0.069
767.0	0.073
767.5	0.070
768.0	0.067
768.5	0.064
769.0	0.062
769.5	0.066
770.0	0.065
770.5	0.068
771.0	0.072
771.5	0.080
772.0	0.079
772.5	0.071
773.0	0.056
773.5	0.043
774.0	0.044
774.5	0.048
775.0	0.051
775.5	0.056
776.0	0.069
776.5	0.070
777.0	0.066
777.5	0.062
778.0	0.056
778.5	0.057
779.0	0.065
779.5	0.065
780.0	0.069
780.5	0.074
781.0	0.082
781.5	0.072
782.0	0.061
782.5	0.064
783.0	0.069
783.5	0.074
784.0	0.084
784.5	0.086
785.0	0.087
785.5	0.084
786.0	0.078
786.5	0.064
787.0	0.058
787.5	0.059
788.0	0.060
788.5	0.071
789.0	0.088
789.5	0.091
790.0	0.085
790.5	0.066
791.0	0.060
791.5	0.050
792.0	0.050
792.5	0.049
793.0	0.060
793.5	0.074
794.0	0.082
794.5	0.083
795.0	0.076
795.5	0.070
796.0	0.082
796.5	0.077
797.0	0.079
797.5	0.088
798.0	0.087
798.5	0.081
799.0	0.073
799.5	0.068
800.0	0.064
800.5	0.064
801.0	0.052
801.5	0.030
802.0	0.014
802.5	0.016
803.0	0.008
803.5	0.021
804.0	0.036
804.5	0.058
805.0	0.073
805.5	0.079
806.0	0.072
806.5	0.064
807.0	0.056
807.5	0.050
808.0	0.044
808.5	0.040
809.0	0.037
809.5	0.043
810.0	0.034
810.5	0.041
811.0	0.052
811.5	0.057
812.0	0.066
812.5	0.061
813.0	0.058
813.5	0.050
814.0	0.050
814.5	0.054
815.0	0.044
815.5	0.036
816.0	0.020
816.5	0.016
817.0	0.030
817.5	0.031
818.0	0.047
818.5	0.059
819.0	0.072
819.5	0.078
820.0	0.067
820.5	0.043
821.0	0.019
821.5	0.015
822.0	0.018
822.5	0.028
823.0	0.046
823.5	0.049
824.0	0.053
824.5	0.051
825.0	0.047
825.5	0.042
826.0	0.036
826.5	0.040
827.0	0.053
827.5	0.071
828.0	0.082
828.5	0.084
829.0	0.076
829.5	0.063
830.0	0.036
830.5	0.013
831.0	-0.009
831.5	-0.023
832.0	-0.025
832.5	-0.016
833.0	0.000
833.5	0.017
834.0	0.035
834.5	0.053
835.0	0.052
835.5	0.062
836.0	0.058
836.5	0.039
837.0	0.026
837.5	0.024
838.0	0.017
838.5	0.009
839.0	0.011
839.5	0.014
840.0	0.013
840.5	0.025
841.0	0.019
841.5	0.004
842.0	0.005
842.5	0.003
843.0	0.008
843.5	0.014
844.0	0.024
844.5	0.042
845.0	0.048
845.5	0.058
846.0	0.045
846.5	0.029
847.0	0.026
847.5	0.013
848.0	0.019
848.5	0.013
849.0	0.019
849.5	0.039
850.0	0.052

